timestamp,quat_w,quat_x,quat_y,quat_z,gyro_x,gyro_y,gyro_z,accel_x,accel_y,accel_z
0.0014756630002921156,-0.5549574494361877,0.007235947530716658,-0.00201543141156435,-0.8318448066711426,-5.0334041588939726e-05,-6.792890781071037e-05,6.02317632001359e-05,-0.14004077017307281,-0.04589372128248215,9.808893203735352
0.004304255000079138,-0.5549573302268982,0.007235890254378319,-0.0020152730867266655,-0.8318448662757874,-5.0331254897173494e-05,-6.792647764086723e-05,6.0226266214158386e-05,-0.1400381177663803,-0.045895662158727646,9.808893203735352
0.006604615000014746,-0.5549572706222534,0.007235861383378506,-0.002015193924307823,-0.8318449258804321,-5.0329865189269185e-05,-6.792526255594566e-05,6.0223515902180225e-05,-0.14003679156303406,-0.045896630734205246,9.808893203735352
0.008691001000443066,-0.5549572706222534,0.007235832512378693,-0.002015114761888981,-0.8318449854850769,-5.032847184338607e-05,-6.792405474698171e-05,6.022077286615968e-05,2.123788595199585,0.6438323259353638,15.903575897216797
0.010872623000068415,-0.5549412965774536,0.0072619919665157795,-0.002019501756876707,-0.8318553566932678,-0.011004260741174221,0.024151774123311043,0.019023459404706955,2.118384599685669,0.6372856497764587,15.957954406738281
0.013212917000146263,-0.5549094080924988,0.007314723916351795,-0.002028506016358733,-0.8318761587142944,-0.022046534344553947,0.04877598211169243,0.037996433675289154,3.1414270401000977,0.5625061392784119,15.139314651489258
0.015319090000048163,-0.5548651814460754,0.00738790538161993,-0.0020402506925165653,-0.831904947757721,-0.03122088313102722,0.06727379560470581,0.052727412432432175,3.8881969451904297,0.603215754032135,14.443191528320312
0.017395718000443594,-0.554811954498291,0.007476438768208027,-0.002051184419542551,-0.831939697265625,-0.04049265384674072,0.07957040518522263,0.06347561627626419,4.368772983551025,0.9308956861495972,14.063983917236328
0.020698181000170734,-0.5546828508377075,0.007684536278247833,-0.0020280536264181137,-0.8320239186286926,-0.07808025181293488,0.07763289660215378,0.08078034222126007,5.211254119873047,1.2796027660369873,13.468676567077637
0.023020361000362755,-0.554609477519989,0.007796274032443762,-0.0019816183485090733,-0.8320719003677368,-0.10127529501914978,0.06699170172214508,0.08704735338687897,5.425120830535889,1.404002070426941,13.353732109069824
0.02527422600041973,-0.5545319318771362,0.007909737527370453,-0.0019055100856348872,-0.8321226835250854,-0.12696029245853424,0.05195677652955055,0.09186743944883347,5.018352031707764,1.2447706460952759,13.274534225463867
0.027450508000129048,-0.5544503927230835,0.0080214012414217,-0.001802048645913601,-0.832176148891449,-0.1487606018781662,0.0352778285741806,0.09646064788103104,5.46176815032959,1.5656788349151611,13.193748474121094
0.029525063000164664,-0.554284393787384,0.008231742307543755,-0.0014848377322778106,-0.8322852849960327,-0.20599932968616486,-0.013959032483398914,0.09766160696744919,5.69628381729126,1.7389512062072754,13.127266883850098
0.03166431600038777,-0.554284393787384,0.008231742307543755,-0.0014848377322778106,-0.8322852849960327,-0.20599932968616486,-0.013959032483398914,0.09766160696744919,5.613706588745117,1.7481800317764282,13.057657241821289
0.03793049900014012,-0.5539700388908386,0.0085457107052207,-0.000444509438239038,-0.8324926495552063,-0.29277491569519043,-0.11807601153850555,0.08531646430492401,5.685919284820557,0.0725293979048729,12.710858345031738
0.04334950400016169,-0.5538256168365479,0.008656114339828491,0.00021281787485349923,-0.8325876593589783,-0.3385663628578186,-0.14585967361927032,0.08108936250209808,2.0109777450561523,-3.4378058910369873,9.458028793334961
0.04891214300005231,-0.5535683035850525,0.00825642142444849,0.0010667681926861405,-0.8327621817588806,-0.12431534379720688,-0.3311322331428528,0.1175064668059349,3.3995602130889893,-1.2424101829528809,6.477662086486816
0.0544617680002375,-0.553188681602478,0.0071419477462768555,0.002072857227176428,-0.8330227732658386,-0.017916202545166016,-0.5679832696914673,0.17871461808681488,3.319511651992798,-2.791534900665283,2.5247864723205566
0.05989237400035563,-0.5526148676872253,0.005348208826035261,0.003106913762167096,-0.8334137797355652,0.06157643720507622,-0.7559923529624939,0.2513585686683655,2.268897771835327,-2.239319086074829,0.6498073935508728
0.06519560600008845,-0.5523841381072998,0.0046279169619083405,0.0034832842648029327,-0.8335695862770081,0.08362173289060593,-0.8098396062850952,0.27415701746940613,1.6729494333267212,-2.1717286109924316,2.5175602436065674
0.07050716400044621,-0.5512908101081848,0.0011809917632490396,0.00498332642018795,-0.8342974781990051,0.22741326689720154,-1.0157133340835571,0.36163321137428284,1.2868614196777344,-4.440945148468018,-1.9477883577346802
0.07624708900038968,-0.5506337881088257,-0.0009614484151825309,0.00554930604994297,-0.834727942943573,0.4003289043903351,-1.0538803339004517,0.39075201749801636,-0.6001694202423096,-4.952939987182617,-1.318463683128357
0.08274155100025382,-0.5492435693740845,-0.00599184213206172,0.005638584494590759,-0.8356217741966248,0.8751043081283569,-1.0375148057937622,0.4096488058567047,-1.9963197708129883,-6.279212474822998,3.761672019958496
0.08804892100033612,-0.5481759905815125,-0.0103121567517519,0.00431761285290122,-0.836288332939148,1.3348318338394165,-0.9166539907455444,0.4059559106826782,-2.7355735301971436,-7.291240215301514,7.659411430358887
0.09303048100036904,-0.5474806427955627,-0.013501835986971855,0.00249932031147182,-0.8367056846618652,1.758726954460144,-0.8058663606643677,0.3749147355556488,-1.5573704242706299,-8.213380813598633,11.034124374389648
0.09779839900011211,-0.5465641021728516,-0.018661128357052803,-0.0016675636870786548,-0.8372076749801636,2.1967666149139404,-0.6313372254371643,0.2790144085884094,-0.21975120902061462,-5.533065319061279,16.962148666381836
0.10286079800016523,-0.5460717082023621,-0.022141732275485992,-0.005077642388641834,-0.8374303579330444,2.4406323432922363,-0.49995845556259155,0.22229933738708496,0.016595425084233284,-2.980532169342041,17.98015022277832
0.10735571400027766,-0.5454553961753845,-0.027131590992212296,-0.010609548538923264,-0.8376333713531494,2.431398391723633,-0.3237501084804535,0.15657123923301697,0.3587956726551056,0.3517066538333893,20.407512664794922
0.11175958200010427,-0.545275866985321,-0.028639601543545723,-0.01245095394551754,-0.8376747369766235,2.36940860748291,-0.25572970509529114,0.13895359635353088,1.0087652206420898,0.5346264839172363,22.02242660522461
0.11620987600008448,-0.5448192954063416,-0.03250711411237717,-0.0176993440836668,-0.8377362489700317,2.030611515045166,-0.056082554161548615,0.0875394269824028,-0.9887773990631104,7.944256782531738,17.758676528930664
0.12012352200008536,-0.544599175453186,-0.034278504550457,-0.020594961941242218,-0.8377425670623779,1.6284664869308472,0.09616086632013321,0.06031811982393265,-1.5866258144378662,6.980290412902832,16.392995834350586
0.12392306900028416,-0.5444998145103455,-0.0349062904715538,-0.021891796961426735,-0.8377482891082764,1.4315906763076782,0.18257729709148407,0.05481134355068207,-1.378845453262329,8.121139526367188,13.67842960357666
0.12780029900022782,-0.5442656874656677,-0.03582603111863136,-0.0249752439558506,-0.8377754092216492,0.8514268398284912,0.3413509726524353,0.03786647692322731,1.0851742029190063,5.042139530181885,9.12977123260498
0.13142495400006737,-0.5441915392875671,-0.03593765199184418,-0.025752926245331764,-0.8377952575683594,0.7144341468811035,0.3323186933994293,0.047864776104688644,1.6440770626068115,6.8851470947265625,5.859232425689697
0.1350759880001533,-0.5440526604652405,-0.0360226146876812,-0.02671760320663452,-0.8378515243530273,0.3425391614437103,0.1854703575372696,0.0631706714630127,2.6767947673797607,5.126455783843994,1.8244273662567139
0.1388855930003956,-0.5438858270645142,-0.03618143871426582,-0.026996787637472153,-0.8379440903663635,0.14852765202522278,-0.042949408292770386,0.10754293203353882,4.928167819976807,-1.1919313669204712,0.4183364510536194
0.1425297750001846,-0.5436369180679321,-0.03673676401376724,-0.027018262073397636,-0.8380807042121887,0.1549108922481537,-0.29210394620895386,0.16144472360610962,4.958261489868164,-1.9575499296188354,0.6959963440895081
0.14678351700013081,-0.5433348417282104,-0.03778587281703949,-0.026845797896385193,-0.8382354974746704,0.24348938465118408,-0.540691614151001,0.1928328424692154,5.720884799957275,-3.3354926109313965,1.7075579166412354
0.15229888000021674,-0.5428775548934937,-0.04016412794589996,-0.02630666084587574,-0.8384383320808411,0.1606716811656952,-0.8309851288795471,0.15521462261676788,4.281540393829346,6.494632720947266,4.65891695022583
0.15449868600035188,-0.5428775548934937,-0.04016412794589996,-0.02630666084587574,-0.8384383320808411,0.1606716811656952,-0.8309851288795471,0.15521462261676788,4.281540393829346,6.494632720947266,4.65891695022583
0.15658185700021932,-0.5428085327148438,-0.041565991938114166,-0.02522018924355507,-0.8384480476379395,-0.11800283938646317,-0.8719646334648132,0.04550042003393173,5.51154088973999,6.905799388885498,11.809113502502441
0.158621248000145,-0.5428085327148438,-0.041565991938114166,-0.02522018924355507,-0.8384480476379395,-0.11800283938646317,-0.8719646334648132,0.04550042003393173,5.51154088973999,6.905799388885498,11.809113502502441
0.16070724400015024,-0.542962908744812,-0.042544037103652954,-0.023771237581968307,-0.8383413553237915,-0.4145927131175995,-0.7774046659469604,-0.08352924883365631,7.81936502456665,6.497519016265869,15.8806734085083
0.16308014800006276,-0.5431256890296936,-0.04283110797405243,-0.022950170561671257,-0.8382441997528076,-0.5370794534683228,-0.6944757699966431,-0.1474502980709076,7.643524646759033,6.460885524749756,17.365585327148438
0.16519705200016688,-0.5436137318611145,-0.04297184199094772,-0.02123834379017353,-0.8379656672477722,-0.7284874320030212,-0.47878316044807434,-0.27237269282341003,9.306720733642578,3.247159481048584,18.05233383178711
0.1672260630002711,-0.5436137318611145,-0.04297184199094772,-0.02123834379017353,-0.8379656672477722,-0.7284874320030212,-0.47878316044807434,-0.27237269282341003,9.306720733642578,3.247159481048584,18.05233383178711
0.16923995700017258,-0.5442981719970703,-0.04258757829666138,-0.019717300310730934,-0.8375781178474426,-0.7721382975578308,-0.2115609496831894,-0.3885030746459961,8.21561050415039,3.9148776531219482,19.94856834411621
0.17132587300011437,-0.5442981719970703,-0.04258757829666138,-0.019717300310730934,-0.8375781178474426,-0.7721382975578308,-0.2115609496831894,-0.3885030746459961,8.21561050415039,3.9148776531219482,19.94856834411621
0.17341349300022557,-0.5447010397911072,-0.04222733527421951,-0.01904067024588585,-0.8373500108718872,-0.77547287940979,-0.08421391993761063,-0.4398643970489502,8.200811386108398,3.558699607849121,20.139070510864258
0.17549339800007147,-0.5456065535545349,-0.041219212114810944,-0.01792132295668125,-0.8368353247642517,-0.748577356338501,0.15581516921520233,-0.5248159170150757,8.065428733825684,3.248438835144043,20.101137161254883
0.17758575600009863,-0.5456065535545349,-0.041219212114810944,-0.01792132295668125,-0.8368353247642517,-0.748577356338501,0.15581516921520233,-0.5248159170150757,7.943464279174805,3.0560343265533447,20.043107986450195
0.17966289600008167,-0.546611487865448,-0.03990282863378525,-0.01712004654109478,-0.8362598419189453,-0.6957116723060608,0.3589005470275879,-0.5869922041893005,7.75112247467041,2.844285726547241,19.413068771362305
0.18174083700023402,-0.546611487865448,-0.03990282863378525,-0.01712004654109478,-0.8362598419189453,-0.6957116723060608,0.3589005470275879,-0.5869922041893005,7.75112247467041,2.844285726547241,19.413068771362305
0.18683903400005875,-0.5482407212257385,-0.03751508891582489,-0.01651088520884514,-0.8353155851364136,-0.5524051189422607,0.6333233714103699,-0.654434859752655,6.616861343383789,3.4607131481170654,18.70316505432129
0.19274844200026564,-0.5499621033668518,-0.034717924892902374,-0.016466964036226273,-0.8343052268028259,-0.5366056561470032,0.8046671748161316,-0.69263756275177,5.450783729553223,3.838212490081787,15.70885944366455
0.1983109620000505,-0.5517634749412537,-0.03155747056007385,-0.016510264948010445,-0.8332398533821106,-0.6394028067588806,0.86696857213974,-0.7267715334892273,3.8853683471679688,5.96856689453125,10.219009399414062
0.2047606440000891,-0.5530408620834351,-0.02934558503329754,-0.016283495351672173,-0.8324779272079468,-0.7126575708389282,0.8189072608947754,-0.7751448750495911,4.868630886077881,4.248917579650879,3.8537960052490234
0.21030324700041092,-0.5551154613494873,-0.02616635523736477,-0.01571502722799778,-0.831213116645813,-0.7882175445556641,0.7368925213813782,-0.833840012550354,4.077224254608154,3.3794760704040527,1.4137144088745117
0.21608713400019042,-0.5580846667289734,-0.02204606868326664,-0.014297198504209518,-0.8293678760528564,-0.9495465755462646,0.5644690990447998,-0.9038986563682556,1.806207299232483,3.518566370010376,-1.9896245002746582
0.22131626100008361,-0.5604047775268555,-0.019034557044506073,-0.01244701724499464,-0.8279065489768982,-1.1578097343444824,0.41577303409576416,-0.9161583781242371,-0.32406142354011536,3.6420507431030273,-1.6515967845916748
0.22647892600025443,-0.5619524717330933,-0.016981275752186775,-0.0107125798240304,-0.8269258141517639,-1.3646758794784546,0.31762513518333435,-0.9135202169418335,-2.0853991508483887,4.837507724761963,-1.9465714693069458
0.23212255500038736,-0.563468873500824,-0.01478072814643383,-0.008505186066031456,-0.8259612321853638,-1.5908902883529663,0.26546427607536316,-0.8786324262619019,-3.8737311363220215,5.670109748840332,0.791396975517273
0.23703977900004247,-0.5655742883682251,-0.011037634685635567,-0.0044344402849674225,-0.8246115446090698,-1.8785947561264038,0.2394503355026245,-0.7778772115707397,-4.911600112915039,1.5305932760238647,2.234281301498413
0.24273053400020217,-0.5673083662986755,-0.006903133355081081,0.0002621829626150429,-0.8234764337539673,-2.210360288619995,0.26236552000045776,-0.6291672587394714,-4.09915828704834,2.9970972537994385,9.272966384887695
0.24733558400021138,-0.5682437419891357,-0.003768141847103834,0.003750177100300789,-0.822843074798584,-2.3490054607391357,0.31430405378341675,-0.5300770401954651,-2.5477468967437744,2.676300048828125,14.10598087310791
0.25176160400042136,-0.5689981579780579,-0.00039019211544655263,0.007314454764127731,-0.8223061561584473,-2.439918041229248,0.3996092975139618,-0.42578765749931335,-1.2432103157043457,3.8257503509521484,17.58371353149414
0.2559968430000481,-0.5697988867759705,0.004951899405568838,0.012718834914267063,-0.8216708302497864,-2.448336124420166,0.4490399658679962,-0.27205318212509155,-0.4708724617958069,-2.9000277519226074,18.270662307739258
0.2597163530003854,-0.5701034069061279,0.008228808641433716,0.015823310241103172,-0.8213793635368347,-2.1190402507781982,0.4675740897655487,-0.17039361596107483,-0.4905039668083191,-3.109259605407715,20.570171356201172
0.26343916000041645,-0.5702098608016968,0.009763825684785843,0.017145147547125816,-0.8212621212005615,-1.9618287086486816,0.5098974704742432,-0.14085914194583893,-0.4692118763923645,-4.956972599029541,20.385683059692383
0.2675789640002222,-0.5704189538955688,0.013859586790204048,0.019879067316651344,-0.8209963440895081,-1.3041419982910156,0.6653352975845337,-0.07557396590709686,-1.9076613187789917,-6.881031513214111,18.514005661010742
0.2710910430000695,-0.5704739689826965,0.01508766133338213,0.020344272255897522,-0.8209250569343567,-1.083101749420166,0.7449666261672974,-0.06790932267904282,-2.1440954208374023,-9.36196231842041,17.13838768005371
0.27482606200010196,-0.5705844759941101,0.01722879707813263,0.02041846327483654,-0.820804238319397,-0.49292460083961487,0.9016393423080444,-0.05743647366762161,-2.384127140045166,-10.85677719116211,14.287331581115723
0.27896361100010836,-0.570712149143219,0.018881717696785927,0.01933049038052559,-0.8207054734230042,0.12900285422801971,1.0089701414108276,-0.05568820238113403,-0.5242730379104614,-8.32109546661377,7.802735805511475
0.2824050500003068,-0.5709084868431091,0.01996840164065361,0.017381900921463966,-0.8205867409706116,0.6258244514465332,0.9806779026985168,-0.09728474915027618,-0.04324150085449219,-4.9229655265808105,3.4039981365203857
0.28570174300011786,-0.5712083578109741,0.020481053739786148,0.015039303340017796,-0.8204116821289062,0.8760773539543152,0.841628909111023,-0.16151030361652374,1.501441240310669,-2.758131265640259,0.7886143326759338
0.28901141000005737,-0.5714018940925598,0.020539211109280586,0.013837900012731552,-0.820296585559845,0.954659104347229,0.7392324209213257,-0.19903025031089783,2.085435390472412,-3.599269390106201,-0.39773061871528625
0.29280204200040316,-0.5718681216239929,0.020144876092672348,0.011399617418646812,-0.8200189471244812,1.1615082025527954,0.4703674614429474,-0.2651233971118927,2.8709635734558105,-2.351388931274414,-2.1213762760162354
0.2959863980004229,-0.5724362134933472,0.01911882683634758,0.009105194360017776,-0.8196757435798645,1.227149486541748,0.16878385841846466,-0.3312457501888275,3.51850962638855,0.8289083242416382,-1.7523398399353027
0.2990483100002166,-0.572754442691803,0.018430013209581375,0.008106674998998642,-0.8194797039031982,1.21706223487854,0.013630879111588001,-0.36023399233818054,4.2781572341918945,1.279576063156128,-0.9259194135665894
0.3021794480000608,-0.5734354257583618,0.016769692301750183,0.0064623551443219185,-0.8190536499023438,1.1249910593032837,-0.27143728733062744,-0.4023410975933075,3.9321439266204834,-0.028240596875548363,-1.6768076419830322
0.30438203900030203,-0.5734354257583618,0.016769692301750183,0.0064623551443219185,-0.8190536499023438,1.1249910593032837,-0.27143728733062744,-0.4023410975933075,3.9321439266204834,-0.028240596875548363,-1.6768076419830322
0.3066804160002903,-0.5741524696350098,0.014755320735275745,0.005260223988443613,-0.8185985088348389,1.0158226490020752,-0.5281487703323364,-0.42850005626678467,4.807034015655518,3.1922597885131836,0.40013810992240906
0.30915304300015123,-0.5749140381813049,0.012725075706839561,0.0047585368156433105,-0.8181010484695435,0.6620817184448242,-0.7260370850563049,-0.4712774455547333,3.7906153202056885,5.981381416320801,2.507098436355591
0.31155468000042674,-0.5749140381813049,0.012725075706839561,0.0047585368156433105,-0.8181010484695435,0.6620817184448242,-0.7260370850563049,-0.4712774455547333,3.7906153202056885,5.981381416320801,2.507098436355591
0.3139618770001107,-0.5757079720497131,0.010825454257428646,0.004985547158867121,-0.8175685405731201,0.4179757833480835,-0.8460472226142883,-0.47262799739837646,4.063232421875,3.7912302017211914,8.106892585754395
0.3164341140000033,-0.5757079720497131,0.010825454257428646,0.004985547158867121,-0.8175685405731201,0.4179757833480835,-0.8460472226142883,-0.47262799739837646,4.063232421875,3.7912302017211914,8.106892585754395
0.3188022690001162,-0.5764277577400208,0.009110119193792343,0.005584706086665392,-0.8170782327651978,0.19990059733390808,-0.8693633675575256,-0.4304305613040924,3.4758923053741455,2.1469130516052246,13.431330680847168
0.3214530140003262,-0.5770385265350342,0.007671027444303036,0.006428650580346584,-0.8166555762290955,0.03444201499223709,-0.8076333999633789,-0.36038485169410706,3.636608362197876,1.3852871656417847,15.424116134643555
0.32374293600014425,-0.5770385265350342,0.007671027444303036,0.006428650580346584,-0.8166555762290955,0.03444201499223709,-0.8076333999633789,-0.36038485169410706,3.938778877258301,0.7550163865089417,16.96255111694336
0.3259223740001289,-0.5775144696235657,0.006542535033077002,0.00734451599419117,-0.8163211941719055,-0.07074093818664551,-0.6903684139251709,-0.2764461040496826,4.213250637054443,0.2234489768743515,18.1435546875
0.3283679010000924,-0.5776991248130798,0.00609713327139616,0.007791349198669195,-0.8161898255348206,-0.10729016363620758,-0.6194285154342651,-0.2327733337879181,3.900947332382202,-0.7746475338935852,19.756868362426758
0.33091386400019474,-0.5778465270996094,0.005729328375309706,0.008215664885938168,-0.8160839676856995,-0.13376770913600922,-0.5435314178466797,-0.18690967559814453,3.900947332382202,-0.7746475338935852,19.756868362426758
0.336830695000117,-0.5780731439590454,0.005083018913865089,0.00931962113827467,-0.8159158825874329,-0.1939963698387146,-0.310114324092865,-0.054897241294384,3.9715805053710938,-1.7648301124572754,20.631301879882812
0.34264850500039756,-0.5779889225959778,0.005014706868678331,0.010120282880961895,-0.8159664869308472,-0.1975112408399582,-0.11232165992259979,0.0741933286190033,2.7662065029144287,-3.080738067626953,19.80698013305664
0.3477277970000614,-0.5775750279426575,0.005239588674157858,0.010549980215728283,-0.816252589225769,-0.1296306848526001,0.0003663875686470419,0.22426895797252655,2.4708251953125,-4.605011940002441,13.486343383789062
0.3527805690000605,-0.5770477652549744,0.005325485486537218,0.010665064677596092,-0.8166233897209167,-0.04953153058886528,-0.011152385734021664,0.35912638902664185,3.466913938522339,-4.694374084472656,8.497139930725098
0.35824264500024583,-0.5758534073829651,0.005183624103665352,0.010607407428324223,-0.8174676895141602,0.0957876518368721,-0.050644055008888245,0.5482637882232666,2.8549516201019287,-4.363424777984619,5.536343097686768
0.36357012200005556,-0.5742519497871399,0.004633592441678047,0.010212196968495846,-0.8186017870903015,0.2779378592967987,-0.10441435128450394,0.7031949758529663,1.66129469871521,-4.3103461265563965,3.0436816215515137
0.3691511970000647,-0.5729857087135315,0.003967147786170244,0.00975152850151062,-0.8194977641105652,0.4184502363204956,-0.17289897799491882,0.7992485165596008,0.9034461975097656,-4.712884426116943,0.2782455384731293
0.3744616430003589,-0.5708531141281128,0.002473745495080948,0.008700437843799591,-0.8210023641586304,0.6612411141395569,-0.23409731686115265,0.8959973454475403,0.052122555673122406,-6.225178241729736,1.0965640544891357
0.3800904850004372,-0.5685489773750305,0.00042648499947972596,0.006853126455098391,-0.8226207494735718,1.0205107927322388,-0.20690932869911194,0.9486898183822632,-2.642014265060425,-5.923483371734619,3.4559173583984375
0.38547567900013746,-0.5669540762901306,-0.0012360346736386418,0.005017966963350773,-0.8237332105636597,1.3200773000717163,-0.1521066278219223,0.9747011065483093,-4.267777442932129,-7.044619560241699,5.67929220199585
0.3908317300001727,-0.5645360350608826,-0.004108799621462822,0.0011973134241998196,-0.8253973126411438,1.735032320022583,-0.026276934891939163,0.9580259919166565,-3.527728319168091,-6.512541770935059,8.585012435913086
0.39642210100009834,-0.562227725982666,-0.007253685034811497,-0.0037522749044001102,-0.8269421458244324,2.0324411392211914,0.12272387742996216,0.8845481276512146,-1.9782105684280396,-2.7269015312194824,15.609604835510254
0.4017028130001563,-0.5601916313171387,-0.010278838686645031,-0.009194009006023407,-0.8282482028007507,2.0840506553649902,0.22171536087989807,0.7524656057357788,-1.494061827659607,0.717186450958252,17.844881057739258
0.40704290400026366,-0.5589837431907654,-0.012043535709381104,-0.012748138047754765,-0.8289931416511536,1.9408410787582397,0.28521856665611267,0.6795604228973389,-0.7953653931617737,1.125105857849121,19.861692428588867
0.41248282900005506,-0.5573802590370178,-0.013976716436445713,-0.01751864328980446,-0.8299548029899597,1.5243291854858398,0.4094533920288086,0.5788132548332214,-1.3261176347732544,7.1140546798706055,18.486900329589844
0.41753645300013886,-0.556463360786438,-0.014482223428785801,-0.01988542266190052,-0.8305078744888306,0.9957562685012817,0.47862711548805237,0.5044844746589661,-1.5798909664154053,5.543412208557129,19.80598258972168
0.42270040000039444,-0.5552285313606262,-0.0139502277597785,-0.022297002375125885,-0.831281840801239,0.33821403980255127,0.6707901954650879,0.4549095630645752,-1.7275348901748657,8.58785629272461,14.84368896484375
0.4276860990003115,-0.5541181564331055,-0.011955508962273598,-0.023294661194086075,-0.8320261836051941,-0.2813107967376709,0.7622762322425842,0.4182843863964081,0.12435393780469894,7.732985019683838,6.077096939086914
0.4328859920001378,-0.5533944368362427,-0.010171852074563503,-0.023052794858813286,-0.8325381278991699,-0.6955070495605469,0.6538726091384888,0.4254409074783325,1.5883747339248657,5.964286804199219,2.8284826278686523
0.4380710380000892,-0.5522371530532837,-0.007567949127405882,-0.021433299407362938,-0.8333771228790283,-0.9925042390823364,0.3116031885147095,0.482717365026474,3.1322522163391113,0.9789149761199951,0.6385360360145569
0.44301207500029705,-0.5514060258865356,-0.006252160295844078,-0.019870832562446594,-0.8339768648147583,-1.0163326263427734,0.06745268404483795,0.5085960626602173,5.465907096862793,-2.728522539138794,1.0347404479980469
0.4480827910001608,-0.550109326839447,-0.005202863831073046,-0.017432434484362602,-0.8348944783210754,-0.8075921535491943,-0.2565802335739136,0.5299524664878845,4.647040843963623,-0.017660649493336678,-0.6172671318054199
0.45297355600041556,-0.5492635369300842,-0.005089973099529743,-0.015686655417084694,-0.8354864120483398,-0.7048734426498413,-0.46898153424263,0.517830491065979,5.284908771514893,-3.1399588584899902,1.38835608959198
0.4552613730002122,-0.5488468408584595,-0.005231708288192749,-0.014856742694973946,-0.8357745409011841,-0.6179287433624268,-0.5662549138069153,0.5128466486930847,5.051727294921875,-3.2181825637817383,1.404485821723938
0.45730375900029685,-0.5484350323677063,-0.0054979403503239155,-0.01405324786901474,-0.8360570073127747,-0.5274622440338135,-0.6559098958969116,0.5073977708816528,5.551710605621338,-4.024085521697998,2.5312464237213135
0.4593112010002187,-0.548026978969574,-0.005887424573302269,-0.013298608362674713,-0.836334228515625,-0.4189671576023102,-0.7322425842285156,0.5028369426727295,6.346954822540283,-4.823675155639648,3.1265475749969482
0.46137965500020073,-0.547246515750885,-0.006893943529576063,-0.01191876083612442,-0.8368582129478455,-0.3052595257759094,-0.7863339185714722,0.45990848541259766,6.444769382476807,-0.7747768759727478,7.8709611892700195
0.4634556840001096,-0.547246515750885,-0.006893943529576063,-0.01191876083612442,-0.8368582129478455,-0.3052595257759094,-0.7863339185714722,0.45990848541259766,6.444769382476807,-0.7747768759727478,7.8709611892700195
0.4655336150003677,-0.5465790629386902,-0.007909901440143585,-0.010659174993634224,-0.8373022675514221,-0.21668103337287903,-0.7534520030021667,0.39630037546157837,5.206987380981445,-0.5736212134361267,12.77872085571289
0.46757847600019886,-0.5465790629386902,-0.007909901440143585,-0.010659174993634224,-0.8373022675514221,-0.21668103337287903,-0.7534520030021667,0.39630037546157837,5.206987380981445,-0.5736212134361267,12.77872085571289
0.46963847400002123,-0.5462874174118042,-0.008409022353589535,-0.010127044282853603,-0.8374943733215332,-0.17248469591140747,-0.7041381001472473,0.3587249219417572,4.857470989227295,-0.11495436728000641,14.993494987487793
0.47171247900041635,-0.5460312366485596,-0.008877013809978962,-0.009662644006311893,-0.8376620411872864,-0.13281932473182678,-0.6416324973106384,0.3147900402545929,4.509175777435303,0.20516711473464966,16.760116577148438
0.473806199000137,-0.5456373691558838,-0.009688496589660645,-0.008950564078986645,-0.8379175662994385,-0.05769973248243332,-0.49239087104797363,0.21671299636363983,4.022409439086914,0.7306286692619324,19.116426467895508
0.47584899600042263,-0.5456373691558838,-0.009688496589660645,-0.008950564078986645,-0.8379175662994385,-0.05769973248243332,-0.49239087104797363,0.21671299636363983,4.022409439086914,0.7306286692619324,19.116426467895508
0.4778769160002412,-0.5454100966453552,-0.010305280797183514,-0.008535550907254219,-0.8380625247955322,0.011825760826468468,-0.3286985158920288,0.11365663260221481,3.011242628097534,1.4053958654403687,20.425081253051758
0.47990845200001786,-0.5454100966453552,-0.010305280797183514,-0.008535550907254219,-0.8380625247955322,0.011825760826468468,-0.3286985158920288,0.11365663260221481,3.011242628097534,1.4053958654403687,20.425081253051758
0.48197810800002117,-0.5453612804412842,-0.010535143315792084,-0.0084349624812603,-0.8380924463272095,0.041318003088235855,-0.24677570164203644,0.060266438871622086,3.755051374435425,1.3459967374801636,20.64731788635254
0.4872050010003477,-0.5454627871513367,-0.01091761700809002,-0.008501315489411354,-0.8380208015441895,0.10317203402519226,-0.0245337076485157,-0.09013234823942184,3.0791423320770264,2.153444766998291,20.63953399658203
0.49207502800027214,-0.5459248423576355,-0.010896659456193447,-0.008975101634860039,-0.837715208530426,0.13554155826568604,0.13676217198371887,-0.23549149930477142,1.550319790840149,3.1925814151763916,18.929248809814453
0.4973306940000839,-0.5464531779289246,-0.01073602307587862,-0.009393181651830673,-0.8373681902885437,0.12197452783584595,0.180644229054451,-0.3534124791622162,2.0414023399353027,4.206628799438477,13.619080543518066
0.5022513330000038,-0.5476593971252441,-0.010369470342993736,-0.009887361899018288,-0.8365786671638489,0.017819445580244064,0.18088681995868683,-0.5483909249305725,2.1897010803222656,4.522910118103027,9.997588157653809
0.5073108780002258,-0.5487177968025208,-0.009981071576476097,-0.009968186728656292,-0.8358886241912842,-0.10054608434438705,0.1780662089586258,-0.658681333065033,2.455491542816162,4.478161334991455,5.209397315979004
0.512472080000407,-0.5506446361541748,-0.00928216241300106,-0.009560763835906982,-0.8346334099769592,-0.3175235986709595,0.06539715081453323,-0.8202924728393555,1.240853190422058,3.97074818611145,1.8858460187911987
0.5175294010000471,-0.5521279573440552,-0.00880061648786068,-0.00886279996484518,-0.8336658477783203,-0.46406981348991394,-0.03236761689186096,-0.9070560932159424,0.37806475162506104,3.943312644958496,-0.03121410310268402
0.5230035590002444,-0.5545256733894348,-0.00800684466958046,-0.0072165182791650295,-0.8320968151092529,-0.6817585229873657,-0.12049490213394165,-0.9700863361358643,-1.6069499254226685,3.8158679008483887,1.1435306072235107
0.5279705240000112,-0.5561671853065491,-0.007334502879530191,-0.005761791951954365,-0.8310180902481079,-0.8314419388771057,-0.1320664882659912,-0.9777103066444397,-3.14695143699646,4.870419025421143,1.4812794923782349
0.532984585000122,-0.5586320161819458,-0.005900730844587088,-0.0030264805536717176,-0.8293890953063965,-1.1028566360473633,-0.0977977067232132,-0.9752691984176636,-3.3314125537872314,3.1736719608306885,5.643402576446533
0.5379784990000189,-0.5602586269378662,-0.004549384582787752,-0.0008608970092609525,-0.8283047676086426,-1.3316336870193481,-0.03233829885721207,-0.9706368446350098,-5.528660774230957,6.196185111999512,6.813295364379883
0.5429590190001363,-0.5626006722450256,-0.0017424687976017594,0.002992667956277728,-0.8267215490341187,-1.6779323816299438,0.09918535500764847,-0.9192671179771423,-3.86555552482605,3.9810543060302734,12.152156829833984
0.5483877830001802,-0.5646905899047852,0.0018535996787250042,0.007173661608248949,-0.8252694606781006,-1.8221884965896606,0.20774507522583008,-0.8473180532455444,-2.8230369091033936,3.473607063293457,15.384868621826172
0.5533846030002678,-0.5658746957778931,0.00447147898375988,0.009887546300888062,-0.8244198560714722,-1.8431529998779297,0.3220020830631256,-0.6909530758857727,-1.6320042610168457,1.612351417541504,18.7122802734375
0.558550364000439,-0.5673668384552002,0.008365169167518616,0.01342276856303215,-0.8233132362365723,-1.5956971645355225,0.4468643069267273,-0.5708659291267395,-1.3509440422058105,-2.7885470390319824,19.429969787597656
0.563361802000145,-0.5685675740242004,0.011830008588731289,0.015654979273676872,-0.8224025368690491,-1.0496537685394287,0.58143550157547,-0.4521525502204895,-2.3566300868988037,-8.349044799804688,17.361024856567383
0.5682147980000991,-0.5692421793937683,0.013685579411685467,0.01597580499947071,-0.8219007253646851,-0.5561122894287109,0.716440737247467,-0.39585092663764954,-2.8978817462921143,-7.857916831970215,16.763683319091797
0.5733311670001058,-0.5701667070388794,0.01594887115061283,0.014712593518197536,-0.8212423920631409,0.15453632175922394,0.9426730275154114,-0.34118717908859253,-2.168790340423584,-9.00570297241211,14.647995948791504
0.5783698140003253,-0.570749819278717,0.016986358910799026,0.012786771170794964,-0.8208487033843994,0.6246662735939026,0.9850459694862366,-0.3243976831436157,-0.20267334580421448,-7.936085224151611,6.02662992477417
0.583671083000354,-0.5716670751571655,0.017390351742506027,0.008736556395888329,-0.8202548623085022,1.2201272249221802,0.8119009733200073,-0.351559579372406,1.7362017631530762,-2.900657892227173,0.9660850763320923
0.5886216380004043,-0.5723457336425781,0.01695062965154648,0.005821742583066225,-0.819816529750824,1.359511375427246,0.6034290194511414,-0.38830840587615967,2.991007089614868,-1.3744052648544312,-0.18887285888195038
0.5935407050001231,-0.5730753540992737,0.016048917546868324,0.003072177991271019,-0.8193397521972656,1.3880666494369507,0.3621188700199127,-0.42412036657333374,4.364011287689209,0.6824787855148315,0.18995629251003265
0.5986759690003964,-0.5742208361625671,0.01403900422155857,-0.00039966279291547835,-0.8185799717903137,1.3390295505523682,-0.0075173829682171345,-0.4430430829524994,4.463809490203857,-0.2329172044992447,-0.9740248322486877
0.6035622760000479,-0.5749772191047668,0.012233130633831024,-0.0023043283727020025,-0.8180747032165527,1.255268931388855,-0.24256399273872375,-0.4421621859073639,4.752570152282715,2.3298709392547607,-0.31531357765197754
0.6056581200000437,-0.5757224559783936,0.010276264511048794,-0.0036839849781244993,-0.817572295665741,1.0867390632629395,-0.4501497447490692,-0.43667954206466675,5.232780456542969,3.7762584686279297,1.302976369857788
0.6077737909999996,-0.5757224559783936,0.010276264511048794,-0.0036839849781244993,-0.817572295665741,1.0867390632629395,-0.4501497447490692,-0.43667954206466675,5.232780456542969,3.7762584686279297,1.302976369857788
0.6098514220002471,-0.5764541625976562,0.008328370749950409,-0.004495297092944384,-0.8170746564865112,0.8250638246536255,-0.5940544009208679,-0.43527212738990784,3.6799445152282715,8.41235065460205,3.533831834793091
0.6118711170001916,-0.5764541625976562,0.008328370749950409,-0.004495297092944384,-0.8170746564865112,0.8250638246536255,-0.5940544009208679,-0.43527212738990784,3.6799445152282715,8.41235065460205,3.533831834793091
0.6139532560000589,-0.5768325328826904,0.007441995665431023,-0.0045851655304431915,-0.8168156743049622,0.5886996984481812,-0.6719734072685242,-0.4537440240383148,4.603529453277588,7.88134241104126,3.9287896156311035
0.6159728700004052,-0.5776119232177734,0.005904685705900192,-0.0041289785876870155,-0.8162797093391418,0.14870963990688324,-0.7868466377258301,-0.47545331716537476,2.967777729034424,8.554364204406738,6.547255039215088
0.6180641860000833,-0.5780065655708313,0.005268720909953117,-0.003576867515221238,-0.8160072565078735,-0.07988099008798599,-0.8380520939826965,-0.4801291525363922,3.115206241607666,4.659221649169922,10.976162910461426
0.6201054000002841,-0.5783786773681641,0.004706161562353373,-0.002928609261289239,-0.8157495856285095,-0.2009381651878357,-0.8337235450744629,-0.45399248600006104,2.2386558055877686,5.145797252655029,11.542874336242676
0.6221988900001634,-0.5783786773681641,0.004706161562353373,-0.002928609261289239,-0.8157495856285095,-0.2009381651878357,-0.8337235450744629,-0.45399248600006104,2.2386558055877686,5.145797252655029,11.542874336242676
0.6242827330002001,-0.5790579319000244,0.0038229681085795164,-0.0013345092302188277,-0.8152763247489929,-0.4487505555152893,-0.8102583289146423,-0.4020668566226959,2.2125813961029053,2.836642265319824,15.333845138549805
0.6262862380003753,-0.5790579319000244,0.0038229681085795164,-0.0013345092302188277,-0.8152763247489929,-0.4487505555152893,-0.8102583289146423,-0.4020668566226959,2.2125813961029053,2.836642265319824,15.333845138549805
0.6283682970001792,-0.5796182155609131,0.003258925396949053,0.0004318005812820047,-0.8148815035820007,-0.5835337042808533,-0.7131556272506714,-0.32576003670692444,2.2550551891326904,0.9150790572166443,17.82168960571289
0.6304389850001826,-0.5796182155609131,0.003258925396949053,0.0004318005812820047,-0.8148815035820007,-0.5835337042808533,-0.7131556272506714,-0.32576003670692444,2.2550551891326904,0.9150790572166443,17.82168960571289
0.6357021440003336,-0.5802835822105408,0.002978672506287694,0.003724651178345084,-0.8144005537033081,-0.6263073086738586,-0.4189406633377075,-0.13335546851158142,1.5725618600845337,-1.877023696899414,19.81145668029785
0.640705256000274,-0.5803644061088562,0.0031646941788494587,0.00503771286457777,-0.8143351674079895,-0.5745253562927246,-0.26805758476257324,-0.026673132553696632,0.9271735548973083,-2.7625908851623535,19.76027488708496
0.6458988780000254,-0.5801393389701843,0.0037131125573068857,0.006538772024214268,-0.814482569694519,-0.47440487146377563,-0.0955715924501419,0.15521888434886932,0.8605359196662903,-4.261393070220947,15.383035659790039
0.6508103200003461,-0.5797001719474792,0.0040906802751123905,0.007253187242895365,-0.8147873282432556,-0.3744053542613983,-0.04928390681743622,0.30843403935432434,1.2732934951782227,-4.53348970413208,10.998311042785645
0.6558638540000175,-0.5790143609046936,0.004388253204524517,0.00773887662217021,-0.8152688145637512,-0.2431613951921463,-0.012137694284319878,0.4512230157852173,1.6537269353866577,-4.284721851348877,7.432034015655518
0.6609392380000827,-0.5775742530822754,0.004528997931629419,0.008073633536696434,-0.8162856698036194,-0.0471985824406147,-0.05472121760249138,0.6547055840492249,0.9490383267402649,-4.297999858856201,4.090528964996338
0.6660060470003373,-0.5757267475128174,0.004175025969743729,0.007858111523091793,-0.8175937533378601,0.2310139685869217,-0.05826643481850624,0.7983403205871582,-0.2184343934059143,-3.910809278488159,2.9335904121398926
0.6709278590001304,-0.5743352174758911,0.003663597395643592,0.007392093539237976,-0.8185786604881287,0.3815407454967499,-0.09343569725751877,0.8701273798942566,-0.7005611658096313,-4.626899242401123,0.876854658126831
0.6759327530003247,-0.5721020102500916,0.0025344048626720905,0.006220726761966944,-0.8201549649238586,0.6242473721504211,-0.08671711385250092,0.926261842250824,-2.727320909500122,-4.524947643280029,3.3157811164855957
0.6807585980000113,-0.5705524682998657,0.0015527928480878472,0.005021359771490097,-0.8212442994117737,0.8364089131355286,-0.05703919380903244,0.9537251591682434,-4.289984703063965,-5.209965229034424,4.876910209655762
0.6858581870001217,-0.5681840181350708,-0.00017149774066638201,0.002444111043587327,-0.8228978514671326,1.1467045545578003,0.05767964571714401,0.9613983035087585,-5.149187088012695,-4.9250054359436035,9.569725036621094
0.6912387930001387,-0.5658596158027649,-0.002110489644110203,-0.001219061785377562,-0.8244979977607727,1.4818410873413086,0.21225160360336304,0.9191650748252869,-4.1233229637146,-2.5958950519561768,13.844703674316406
0.6963081760000023,-0.5643877387046814,-0.0033638181630522013,-0.004097759258002043,-0.825492799282074,1.567949891090393,0.333283931016922,0.8670217990875244,-3.5148708820343018,-1.610322117805481,16.922103881835938
0.7013579930003289,-0.5623548626899719,-0.004868155345320702,-0.008636620827019215,-0.8268365859985352,1.501192569732666,0.492887943983078,0.7764631509780884,-2.8828256130218506,0.6401451826095581,19.647180557250977
0.7062912860001234,-0.5617298483848572,-0.005230870563536882,-0.010120010934770107,-0.8272422552108765,1.4300353527069092,0.5416584610939026,0.7408432364463806,-2.5578417778015137,2.262375831604004,18.696861267089844
0.7114093390000562,-0.5595595240592957,-0.005719922948628664,-0.015182589180767536,-0.8286313414573669,0.8730502724647522,0.6839235424995422,0.5870278477668762,-2.897416830062866,6.12161111831665,19.826351165771484
0.7164865960003226,-0.5590834617614746,-0.005487391259521246,-0.01614168845117092,-0.8289361000061035,0.6627207398414612,0.73832768201828,0.556012749671936,-2.2444095611572266,5.799511909484863,20.546464920043945
0.7217463800002406,-0.5577898025512695,-0.0037777461111545563,-0.018198728561401367,-0.8297740817070007,0.013967209495604038,0.9328912496566772,0.47194111347198486,-1.9045121669769287,11.135283470153809,15.818275451660156
0.7267972790000385,-0.5567271709442139,-0.0003746462462004274,-0.01851819083094597,-0.830488920211792,-0.7696343064308167,1.025315761566162,0.38028180599212646,-0.47079649567604065,7.9306817054748535,12.66550350189209
0.7319954590002453,-0.5557603240013123,0.0037854525726288557,-0.01739739440381527,-0.8311519026756287,-1.2055397033691406,0.8927618861198425,0.3633367121219635,2.0867843627929688,3.1486024856567383,3.1730690002441406
0.7372605220002697,-0.5550879836082458,0.006493123713880777,-0.016038645058870316,-0.831611692905426,-1.375666856765747,0.6971559524536133,0.3875763416290283,3.299076795578003,3.2765536308288574,0.9070506691932678
0.7422896910002237,-0.554024875164032,0.01003896351903677,-0.013194318860769272,-0.8323349952697754,-1.439784288406372,0.33887648582458496,0.4102952778339386,4.139514923095703,-0.4185599982738495,0.3864169120788574
0.7476836620003269,-0.5533028244972229,0.011824207380414009,-0.011066792532801628,-0.8328227400779724,-1.3614919185638428,0.0970911905169487,0.4125053882598877,4.941721439361572,-1.9729382991790771,1.2400351762771606
0.7525698580002427,-0.5522320866584778,0.013509287498891354,-0.00789148360490799,-0.833543598651886,-1.1022342443466187,-0.21560169756412506,0.40989333391189575,4.388609886169434,-0.22615523636341095,-0.01904529146850109
0.7547390970003107,-0.5518862009048462,0.013839473016560078,-0.006802451331168413,-0.8337768316268921,-1.0966084003448486,-0.32659590244293213,0.3997933566570282,5.8757405281066895,-4.76068115234375,3.1351139545440674
0.7567670970001927,-0.5515435934066772,0.014032715000212193,-0.005795319564640522,-0.8340079188346863,-0.9526839852333069,-0.3955688178539276,0.39792153239250183,5.8757405281066895,-4.76068115234375,3.1351139545440674
0.7588366730001326,-0.5511897206306458,0.014010670594871044,-0.004918582737445831,-0.8342478275299072,-0.7254034876823425,-0.5032594203948975,0.41527754068374634,3.3087332248687744,-7.86789083480835,3.6446874141693115
0.7609231200003705,-0.5508268475532532,0.013793732039630413,-0.004171870648860931,-0.8344951272010803,-0.5096696019172668,-0.5942407250404358,0.42966601252555847,2.4554996490478516,-8.604167938232422,4.7883219718933105
0.7630084760003228,-0.5504579544067383,0.013372577726840973,-0.003572208574041724,-0.8347481489181519,-0.2745753526687622,-0.6837126016616821,0.44067680835723877,2.078517436981201,-9.280029296875,5.9253315925598145
0.7650440690003961,-0.5500850081443787,0.012741553597152233,-0.003133332123979926,-0.8350055813789368,-0.024905983358621597,-0.7704400420188904,0.4494124948978424,1.8421729803085327,-9.534455299377441,7.016825199127197
0.7670854030002374,-0.5497104525566101,0.011905432678759098,-0.002860496984794736,-0.8352655172348022,0.22653181850910187,-0.8503866791725159,0.454891562461853,1.605158805847168,-9.475351333618164,7.649160385131836
0.7692823240004145,-0.5493354797363281,0.010874914936721325,-0.002751909429207444,-0.8355265855789185,0.47057610750198364,-0.9224831461906433,0.45835164189338684,1.3624831438064575,-5.476572513580322,11.835700035095215
0.7713696130003882,-0.5489827990531921,0.009755360893905163,-0.002741284901276231,-0.8357722163200378,0.6016228199005127,-0.942954421043396,0.43255090713500977,1.521742820739746,-5.423159122467041,12.446660041809082
0.7734600870003305,-0.5486516952514648,0.008555334992706776,-0.0028264212887734175,-0.8360024690628052,0.7260867357254028,-0.9575487375259399,0.40730559825897217,1.6892896890640259,-4.0832200050354,14.290862083435059
0.7755293930003972,-0.5483468174934387,0.007314096204936504,-0.0029900334775447845,-0.8362136483192444,0.8145832419395447,-0.9488579034805298,0.37561219930648804,1.9125823974609375,-2.784696578979492,15.911657333374023
0.7775632230000156,-0.5480728149414062,0.006068478338420391,-0.0032145974691957235,-0.836402416229248,0.8682454824447632,-0.9190252423286438,0.3380334973335266,2.082716226577759,-1.6781095266342163,17.200298309326172
0.7796449520001261,-0.5476310849189758,0.0036741013173013926,-0.0037927324883639812,-0.8367032408714294,0.8981266021728516,-0.8137173056602478,0.24976986646652222,2.35103702545166,0.06700883060693741,18.888010025024414
0.7817076350002026,-0.5476310849189758,0.0036741013173013926,-0.0037927324883639812,-0.8367032408714294,0.8981266021728516,-0.8137173056602478,0.24976986646652222,2.35103702545166,0.06700883060693741,18.888010025024414
0.7871202200003609,-0.5472645163536072,0.0005850494490005076,-0.00482311611995101,-0.8369455933570862,0.815517246723175,-0.5991187691688538,0.10119614750146866,1.8515541553497314,1.981034755706787,19.905807495117188
0.7921193840002161,-0.5472359657287598,-0.0010453255381435156,-0.005546213127672672,-0.8369593620300293,0.7269970774650574,-0.44617530703544617,-0.007845232263207436,0.9838531613349915,3.1107208728790283,19.275524139404297
0.7971002840004076,-0.5475517511367798,-0.0028444777708500624,-0.006597849074751139,-0.8367409706115723,0.5648557543754578,-0.24675177037715912,-0.18417932093143463,0.7170748710632324,4.779870986938477,13.673337936401367
0.8022565870001017,-0.5483998656272888,-0.0040099420584738255,-0.007348781451582909,-0.8361743092536926,0.3420499265193939,-0.17522414028644562,-0.41414883732795715,1.0894711017608643,4.682311534881592,9.945676803588867
0.8072072220002156,-0.5492616891860962,-0.004491669591516256,-0.0075433384627103806,-0.8356042504310608,0.16914430260658264,-0.1420927345752716,-0.5455804467201233,2.5827975273132324,5.731879711151123,4.9084320068359375
0.8125473230002171,-0.5509313344955444,-0.004752153530716896,-0.007247446104884148,-0.834505558013916,-0.12225331366062164,-0.1500966101884842,-0.7234585881233215,1.003852367401123,4.582949638366699,1.9607619047164917
0.8176170970000385,-0.552936851978302,-0.004699875600636005,-0.006319232750684023,-0.8331859707832336,-0.33460479974746704,-0.17240796983242035,-0.8312243223190308,-0.46496742963790894,3.699364185333252,1.8085503578186035
0.8227340980001827,-0.5543923377990723,-0.004536209162324667,-0.005409517325460911,-0.832225501537323,-0.4586368203163147,-0.20245395600795746,-0.8857104778289795,-1.594926118850708,3.997237205505371,0.3776816427707672
0.8277803180003502,-0.5567088723182678,-0.00403536856174469,-0.003517117816954851,-0.8306904435157776,-0.714310884475708,-0.21759477257728577,-0.9395796060562134,-2.97918438911438,3.664443016052246,4.433859825134277
0.832820257000094,-0.5582796931266785,-0.0033843517303466797,-0.0019391790265217423,-0.8296436667442322,-0.8983895182609558,-0.15617559850215912,-0.9440596103668213,-4.497597694396973,4.966305732727051,6.08730936050415
0.8380385140003455,-0.5606130361557007,-0.001713285339064896,0.0008475322392769158,-0.8280757069587708,-1.1865532398223877,-0.004860793240368366,-0.925692617893219,-4.797054767608643,4.545156002044678,10.361130714416504
0.8431038800003989,-0.5613722801208496,-0.0009498056024312973,0.0018773333868011832,-0.8275607228279114,-1.2825078964233398,0.054660286754369736,-0.9150638580322266,-4.240566253662109,3.1092543601989746,12.050603866577148
0.8481171200000972,-0.5635544657707214,0.001857818802818656,0.0050479331985116005,-0.8260613679885864,-1.4589000940322876,0.24675557017326355,-0.8545318245887756,-3.518005847930908,3.310464382171631,16.662342071533203
0.8533086680004089,-0.5660424828529358,0.006567647680640221,0.00903063639998436,-0.8243004083633423,-1.425309658050537,0.505581259727478,-0.7042883038520813,-2.68924880027771,-1.333622694015503,19.3960018157959
0.8584586690003562,-0.5671038627624512,0.008971240371465683,0.010503565892577171,-0.8235304355621338,-1.2458864450454712,0.6017200350761414,-0.6297163963317871,-2.612868070602417,-4.913753986358643,18.815366744995117
0.863844094000342,-0.5684719085693359,0.012135599739849567,0.011440413072705269,-0.8225336074829102,-0.6592394113540649,0.7577855587005615,-0.5233941674232483,-3.0741169452667236,-6.887208461761475,18.692659378051758
0.86895028500021,-0.5692734718322754,0.013894609175622463,0.01099576335400343,-0.8219572901725769,-0.19058527052402496,0.8928524851799011,-0.46588242053985596,-2.446730375289917,-8.433948516845703,17.317733764648438
0.8741617890000271,-0.570304274559021,0.015845494344830513,0.008520049042999744,-0.8212364912033081,0.5495783090591431,1.061977744102478,-0.3658112585544586,-1.202803611755371,-10.237359046936035,10.096040725708008
0.8793562920000113,-0.5711939334869385,0.016719669103622437,0.004358412232249975,-0.8206332921981812,1.1270462274551392,1.0002639293670654,-0.3266320824623108,1.0354044437408447,-4.9748005867004395,4.586413860321045
0.884401711999999,-0.5714868307113647,0.016778983175754547,0.0028129362035542727,-0.8204348683357239,1.23842191696167,0.9360364079475403,-0.3275924623012543,1.9899907112121582,-5.762130260467529,3.9952504634857178
0.8894743410000956,-0.5720717906951904,0.016491297632455826,-0.0004136875213589519,-0.8200376033782959,1.4258484840393066,0.7641808986663818,-0.3294868469238281,2.5262844562530518,-3.6368186473846436,-0.1450139582157135
0.8943551670004126,-0.57298743724823,0.015205785632133484,-0.005046200472861528,-0.8194075226783752,1.5065269470214844,0.423345685005188,-0.35019856691360474,4.50551176071167,0.5598815679550171,1.0549087524414062
0.8995577450000383,-0.5739200115203857,0.013246718794107437,-0.008821163326501846,-0.8187566995620728,1.3418025970458984,0.07180675119161606,-0.36054471135139465,4.539233684539795,-0.165994331240654,-0.5893502235412598
0.9050903000002108,-0.5748370885848999,0.010767145082354546,-0.011589545756578445,-0.8181149363517761,1.130585789680481,-0.24113856256008148,-0.3507132828235626,4.804619789123535,3.1094188690185547,1.31475031375885
0.9072446020004463,-0.5751349329948425,0.009917461313307285,-0.012237248942255974,-0.81790691614151,1.0239434242248535,-0.324026882648468,-0.34642186760902405,4.562532901763916,3.3145546913146973,1.544020652770996
0.9093393050002305,-0.5754287242889404,0.009075951762497425,-0.012751326896250248,-0.8177021741867065,0.9098696708679199,-0.39417704939842224,-0.34269511699676514,0.7203395366668701,8.435619354248047,4.403140068054199
0.9116316310000911,-0.5757357478141785,0.00830196775496006,-0.013011313043534756,-0.8174901008605957,0.6634536981582642,-0.4852759838104248,-0.36084023118019104,3.2464516162872314,8.139217376708984,4.2785186767578125
0.9136699489999955,-0.5760530233383179,0.0076000685803592205,-0.013044411316514015,-0.8172729015350342,0.43662697076797485,-0.5570641160011292,-0.3750251829624176,3.015977382659912,8.908732414245605,5.299209117889404
0.9157334740002625,-0.5763787627220154,0.006978243123739958,-0.012836692854762077,-0.8170520067214966,0.19379863142967224,-0.6304291486740112,-0.38692596554756165,2.5254085063934326,9.3485689163208,6.440896987915039
0.9178444370004399,-0.5767101645469666,0.006442515179514885,-0.01238343957811594,-0.8168295621871948,-0.056381288915872574,-0.7016642093658447,-0.39525678753852844,2.2316701412200928,9.496522903442383,7.435323238372803
0.9199599370003853,-0.5773817300796509,0.005626412574201822,-0.010769622400403023,-0.8163838982582092,-0.5341554880142212,-0.8332244157791138,-0.4047074317932129,1.4345099925994873,5.4875807762146,11.98810863494873
0.9220940820000578,-0.5773817300796509,0.005626412574201822,-0.010769622400403023,-0.8163838982582092,-0.5341554880142212,-0.8332244157791138,-0.4047074317932129,1.4345099925994873,5.4875807762146,11.98810863494873
0.9241415080000479,-0.5779942274093628,0.005070324055850506,-0.008598431944847107,-0.8159797787666321,-0.7816354632377625,-0.8630246520042419,-0.3585175573825836,0.6909040212631226,3.7212753295898438,14.113861083984375
0.9262264920002963,-0.5782653093338013,0.004867581184953451,-0.007403727620840073,-0.815800666809082,-0.8547563552856445,-0.857388973236084,-0.3290083408355713,1.573248028755188,2.7705798149108887,15.524206161499023
0.9283016990002579,-0.5785070657730103,0.004711500834673643,-0.006183828227221966,-0.8156403303146362,-0.9025750756263733,-0.83376544713974,-0.2947586178779602,1.573248028755188,2.7705798149108887,15.524206161499023
0.9303165540000009,-0.5785070657730103,0.004711500834673643,-0.006183828227221966,-0.8156403303146362,-0.9025750756263733,-0.83376544713974,-0.2947586178779602,0.9722495675086975,1.3310381174087524,16.812997817993164
0.9359949370000322,-0.5791114568710327,0.004469536244869232,-0.0015981374308466911,-0.8152346014976501,-0.8680628538131714,-0.6242623329162598,-0.11597710102796555,1.3222781419754028,-0.9124577641487122,18.981304168701172
0.9412079050002831,-0.5791654586791992,0.004552782978862524,0.00032784233917482197,-0.815197229385376,-0.7876006960868835,-0.4900413453578949,-0.01064931321889162,0.22055217623710632,-2.7636821269989014,19.55557632446289
0.9472560980002527,-0.5786913633346558,0.0049576652236282825,0.003283780300989747,-0.8155249357223511,-0.5748440027236938,-0.2841866910457611,0.24629323184490204,-0.545745313167572,-4.63792610168457,14.906072616577148
0.9523483330003728,-0.5781039595603943,0.00513083441182971,0.0043433536775410175,-0.8159354329109192,-0.4536246359348297,-0.22995369136333466,0.3957049548625946,0.3759455978870392,-4.472282886505127,10.906536102294922
0.9577327760002845,-0.5767980813980103,0.005167656112462282,0.005404931027442217,-0.8168525099754333,-0.22430317103862762,-0.19782470166683197,0.5978104472160339,2.0275344848632812,-5.5532965660095215,4.940985679626465
0.9627307080004357,-0.5756676197052002,0.004937640391290188,0.005732129327952862,-0.8176487684249878,-0.016160873696208,-0.20255909860134125,0.7229008078575134,0.44426482915878296,-4.168097496032715,2.804799795150757
0.9679837190001308,-0.5743719935417175,0.00448028277605772,0.005829615518450737,-0.8185613751411438,0.12788590788841248,-0.21724402904510498,0.8068841099739075,0.4102816879749298,-4.602509498596191,0.41258108615875244
0.9730274040002769,-0.571470320224762,0.0029888811986893415,0.005370203405618668,-0.8205997347831726,0.41412821412086487,-0.25507470965385437,0.9207934737205505,-1.9192389249801636,-3.6857476234436035,3.7912776470184326
0.9780655000004117,-0.5699287056922913,0.002000657841563225,0.00476481206715107,-0.8216779232025146,0.5824803113937378,-0.23439764976501465,0.9472507238388062,-3.372447967529297,-4.611649036407471,3.731093168258667
0.9840486740004053,-0.5675630569458008,0.000300027517369017,0.0032025559339672327,-0.823323667049408,0.851287841796875,-0.13234524428844452,0.9632510542869568,-4.702964782714844,-4.80067253112793,7.6338324546813965
0.9895158690001153,-0.5651921033859253,-0.0016096994513645768,0.0005524812149815261,-0.824957549571991,1.2180973291397095,0.03268352895975113,0.9504175186157227,-4.531592845916748,-3.6412301063537598,11.926107406616211
0.994704271000046,-0.5636569857597351,-0.0029000272043049335,-0.0018028072081506252,-0.8260018825531006,1.390921711921692,0.1705712527036667,0.9092239141464233,-4.003981113433838,-3.3387796878814697,14.856843948364258
0.9980788670000038,-0.5629249811172485,-0.003522645914927125,-0.0031397861894220114,-0.8264945149421692,1.4565260410308838,0.2420618236064911,0.8795889019966125,-3.6109495162963867,-1.6858514547348022,15.808778762817383
1.0030465230001937,-0.5608635544776917,-0.0050733936950564384,-0.007411447819322348,-0.8278595209121704,1.46063232421875,0.44602492451667786,0.7835578918457031,-2.189589262008667,-1.8582048416137695,19.881181716918945
1.0084043170004406,-0.5590701103210449,-0.006062656175345182,-0.011744424700737,-0.8290150165557861,1.2937761545181274,0.5931904315948486,0.6687654852867126,-1.881442666053772,1.1467185020446777,20.82268714904785
1.013387662000241,-0.5580224990844727,-0.006112935021519661,-0.014195228926837444,-0.8296818733215332,0.9161953926086426,0.6921868324279785,0.5923731923103333,-2.201385021209717,5.323521614074707,20.558082580566406
1.0183172580000246,-0.5566408038139343,-0.004857619293034077,-0.016771454364061356,-0.8305697441101074,0.2388344705104828,0.9088801741600037,0.5106481313705444,-2.796193838119507,8.95354175567627,17.117273330688477
1.023285615000077,-0.5558303594589233,-0.003038068301975727,-0.01768771931529045,-0.8311020135879517,-0.248159259557724,1.0541037321090698,0.45118704438209534,-1.6585968732833862,11.464292526245117,13.480611801147461
1.0282713440001316,-0.5547841191291809,0.001022683340124786,-0.01753224991261959,-0.8318089842796326,-1.0057975053787231,1.1001806259155273,0.3799701929092407,0.08869589120149612,6.817080020904541,5.858301639556885
1.0335078350003641,-0.5537822842597961,0.0055863824672997,-0.015996305271983147,-0.8324890732765198,-1.3684343099594116,0.9127556085586548,0.37801700830459595,2.3765602111816406,2.384430408477783,1.5910801887512207
1.0383971370001746,-0.5530881285667419,0.008449045941233635,-0.014412150718271732,-0.8329552412033081,-1.5058040618896484,0.6993480324745178,0.3921571373939514,3.3449151515960693,2.6378912925720215,0.049281150102615356
1.0434540770002059,-0.5523753762245178,0.011017239652574062,-0.012390634045004845,-0.8334305882453918,-1.5398132801055908,0.4521503448486328,0.4064888656139374,4.022449493408203,-0.14930348098278046,-0.1396903395652771
1.0485449500001778,-0.5512895584106445,0.013929184526205063,-0.009059818461537361,-0.8341485261917114,-1.4123120307922363,0.07686375081539154,0.40723466873168945,4.644909381866455,-2.0941240787506104,0.9204272031784058
1.0537188750004134,-0.5505831837654114,0.015199873596429825,-0.00683877058327198,-0.8346139192581177,-1.2361701726913452,-0.1325782835483551,0.3999399244785309,5.073151588439941,-3.1951229572296143,1.9614044427871704
1.0560248060000959,-0.5502381324768066,0.015632938593626022,-0.00578343914821744,-0.8348413705825806,-1.1260337829589844,-0.22070293128490448,0.3942227065563202,4.814390659332275,-3.3107728958129883,2.159109592437744
1.0580838530004257,-0.5495522022247314,0.016019197180867195,-0.003934175707399845,-0.8352965116500854,-0.7589396834373474,-0.40056654810905457,0.4041264057159424,1.2710016965866089,-7.524036407470703,4.8329267501831055
1.0600927180003055,-0.5492009520530701,0.015907470136880875,-0.0032245118636637926,-0.8355327248573303,-0.5379364490509033,-0.4857243001461029,0.4123024046421051,1.2710016965866089,-7.524036407470703,4.8329267501831055
1.0622426620002443,-0.5492009520530701,0.015907470136880875,-0.0032245118636637926,-0.8355327248573303,-0.5379364490509033,-0.4857243001461029,0.4123024046421051,1.838765025138855,-8.69726276397705,5.506937503814697
1.06424628700006,-0.5484911203384399,0.015046721324324608,-0.0022791316732764244,-0.8360178470611572,-0.03626485913991928,-0.6683085560798645,0.42710620164871216,1.4550988674163818,-9.3707857131958,7.043934345245361
1.0663319620002767,-0.5484911203384399,0.015046721324324608,-0.0022791316732764244,-0.8360178470611572,-0.03626485913991928,-0.6683085560798645,0.42710620164871216,1.4550988674163818,-9.3707857131958,7.043934345245361
1.0683966800002054,-0.5477842092514038,0.0133408447727561,-0.001973002217710018,-0.836510956287384,0.45154252648353577,-0.8426626920700073,0.43109390139579773,1.1588294506072998,-8.657546043395996,8.420787811279297
1.0706897870004468,-0.5474354028701782,0.012205409817397594,-0.002029737224802375,-0.8367564678192139,0.6642954349517822,-0.9213124513626099,0.4292396903038025,1.4999362230300903,-4.756997108459473,12.124462127685547
1.0727925640003377,-0.5471122860908508,0.010990162380039692,-0.0021610839758068323,-0.8369842767715454,0.7707693576812744,-0.9470875263214111,0.3991278111934662,0.8757761716842651,-4.494547367095947,12.369153022766113
1.0748060070000065,-0.5468132495880127,0.009703556075692177,-0.0023578184191137552,-0.8371950387954712,0.8648397326469421,-0.9709038138389587,0.37056928873062134,0.9836143851280212,-3.098121404647827,14.079315185546875
1.0768815140004335,-0.5465430021286011,0.008384437300264835,-0.0026025266852229834,-0.8373849987983704,0.9231102466583252,-0.971756637096405,0.33561697602272034,1.2632888555526733,-1.836591362953186,15.590052604675293
1.078896490000261,-0.546305775642395,0.007068115286529064,-0.00287995720282197,-0.8375510573387146,0.9493219256401062,-0.9514152407646179,0.29512500762939453,1.4801641702651978,-0.7876229882240295,16.82492446899414
1.0810941620002268,-0.5461050868034363,0.005782501306384802,-0.0031790744978934526,-0.8376907110214233,0.9510438442230225,-0.9137672185897827,0.2502131760120392,1.6483031511306763,0.060175977647304535,17.807466506958008
1.0872537600002943,-0.5457451939582825,0.0022908737882971764,-0.004148093052208424,-0.8379377722740173,0.8724181056022644,-0.7324727773666382,0.09956394135951996,1.34977388381958,1.9936332702636719,19.53998565673828
1.0922322060000624,-0.5457862019538879,-0.0004470260755624622,-0.005148966331034899,-0.8379085063934326,0.7285041809082031,-0.5072872042655945,-0.06947384774684906,0.20724473893642426,3.481525182723999,19.43006706237793
1.0984027240001524,-0.5463154911994934,-0.002428661799058318,-0.006026939954608679,-0.8375542759895325,0.5358509421348572,-0.35590097308158875,-0.2899792492389679,0.6569421887397766,4.813328742980957,13.557655334472656
1.1034263330002432,-0.5469878315925598,-0.0033795852214097977,-0.006440877914428711,-0.8371089696884155,0.40097564458847046,-0.26385992765426636,-0.4356512427330017,2.4234349727630615,5.588009357452393,9.039013862609863
1.108856971000023,-0.5484285354614258,-0.004202557727694511,-0.006698336452245712,-0.8361600041389465,0.14343301951885223,-0.17823918163776398,-0.6446948647499084,1.5284724235534668,4.6642866134643555,4.710839748382568
1.114025667000078,-0.5496493577957153,-0.00450615119189024,-0.0065833935514092445,-0.8353573679924011,0.00020673361723311245,-0.15471169352531433,-0.7520009875297546,1.1348192691802979,4.451472282409668,2.1689610481262207
1.1188607190001676,-0.551745593547821,-0.004678357858210802,-0.006005925126373768,-0.8339777588844299,-0.18696396052837372,-0.1505039781332016,-0.8635234236717224,-0.3633834719657898,3.991809844970703,0.9551423192024231
1.1247697260000677,-0.5532618165016174,-0.00464006420224905,-0.005373578984290361,-0.8329771757125854,-0.30189815163612366,-0.16675019264221191,-0.9181934595108032,-1.7010648250579834,4.561798095703125,-0.7384734749794006
1.1296908670001358,-0.5564849376678467,-0.004127182997763157,-0.003392251441255212,-0.830840528011322,-0.6114915013313293,-0.15532155334949493,-0.9793317914009094,-3.6835405826568604,4.244597911834717,4.79502010345459
1.1354588550002518,-0.5581319332122803,-0.003437129780650139,-0.001996038481593132,-0.8297426700592041,-0.8518561720848083,-0.08729645609855652,-0.9927798509597778,-5.419976711273193,6.047879219055176,6.466174125671387
1.14051352100023,-0.5597829818725586,-0.0023082331754267216,-0.0002789068385027349,-0.8286359906196594,-1.0727319717407227,0.011823784559965134,-0.9891394972801208,-4.982025623321533,5.484668731689453,9.674796104431152
1.1455629070001123,-0.5621615052223206,0.00018432825163472444,0.0026831887662410736,-0.8270230889320374,-1.3475286960601807,0.19729609787464142,-0.9413253664970398,-3.7301557064056396,3.481717824935913,15.053897857666016
1.1511367690000043,-0.5643030405044556,0.0034991956781595945,0.005751257762312889,-0.8255402445793152,-1.5206681489944458,0.40428006649017334,-0.8252519369125366,-2.8370418548583984,1.420169711112976,18.386253356933594
1.15626718600015,-0.5655674338340759,0.0059757051058113575,0.0076149278320372105,-0.8246452212333679,-1.4226820468902588,0.5364611148834229,-0.7542933225631714,-2.107018232345581,-0.32843509316444397,20.045757293701172
1.1623610150004424,-0.5677490830421448,0.01073866430670023,0.009821025654673576,-0.8230730295181274,-0.8880638480186462,0.7653518319129944,-0.6140281558036804,-2.834256172180176,-7.466307163238525,18.818758010864258
1.1673934210002699,-0.5686801671981812,0.012728226371109486,0.009716787375509739,-0.822402834892273,-0.4101770222187042,0.8944767117500305,-0.5491062998771667,-3.019700765609741,-7.460488796234131,18.732730865478516
1.1733337970003959,-0.569905161857605,0.01513692457228899,0.007848087698221207,-0.8215335607528687,0.2939911186695099,1.0816993713378906,-0.44669806957244873,-1.563125491142273,-10.754891395568848,13.65534496307373
1.1784160750003139,-0.5705947279930115,0.01613539829850197,0.005428052973002195,-0.8210552930831909,0.843332052230835,1.1022642850875854,-0.38521265983581543,0.02201984077692032,-7.021758079528809,9.744505882263184
1.1834855800002515,-0.5715659260749817,0.01669301651418209,0.0008844318799674511,-0.8203858733177185,1.2671114206314087,0.9537498950958252,-0.36871442198753357,2.1899986267089844,-3.7531495094299316,4.573299407958984
1.1892868910003926,-0.5725474953651428,0.016177907586097717,-0.0038929672446101904,-0.819702684879303,1.493319034576416,0.6685281991958618,-0.37144920229911804,3.94585919380188,-0.07980983704328537,2.3975276947021484
1.1946048020004127,-0.5732108950614929,0.01533475797623396,-0.0068527585826814175,-0.8192357420921326,1.4510082006454468,0.444356769323349,-0.38387006521224976,4.1205220222473145,-1.8427960872650146,0.02574760653078556
1.2002767750000203,-0.5742113590240479,0.013353431597352028,-0.010709469206631184,-0.8185281157493591,1.376389503479004,0.07933887094259262,-0.38637417554855347,4.81827974319458,1.9084599018096924,1.0091863870620728
1.2027031880002141,-0.5748670697212219,0.011784706264734268,-0.012667962349951267,-0.8180639147758484,1.2149879932403564,-0.12975439429283142,-0.37761011719703674,4.469379901885986,2.6458752155303955,1.12025785446167
1.2048659560000488,-0.5751877427101135,0.010969136841595173,-0.01345027331262827,-0.8178372979164124,1.115473747253418,-0.21885530650615692,-0.37304580211639404,5.827888011932373,4.224363803863525,3.0124008655548096
1.2069248430002517,-0.5755038261413574,0.010169526562094688,-0.014083152636885643,-0.8176146149635315,0.9839814305305481,-0.29173514246940613,-0.3688909411430359,5.556881904602051,4.357944011688232,3.236823558807373
1.2094339880000007,-0.575814962387085,0.009398503229022026,-0.014569785445928574,-0.8173961639404297,0.847845196723938,-0.3525022566318512,-0.3643400967121124,1.5138959884643555,8.930404663085938,5.028193473815918
1.2117110670001239,-0.576471209526062,0.008066483773291111,-0.014797651208937168,-0.8169436454772949,0.3725733757019043,-0.5187312960624695,-0.3933948278427124,2.4945363998413086,8.616218566894531,5.5251336097717285
1.2137897400002657,-0.576471209526062,0.008066483773291111,-0.014797651208937168,-0.8169436454772949,0.3725733757019043,-0.5187312960624695,-0.3933948278427124,2.4945363998413086,8.616218566894531,5.5251336097717285
1.2158045460000722,-0.5771510004997253,0.00701742572709918,-0.014087384566664696,-0.8164857625961304,-0.1021573469042778,-0.6756505966186523,-0.40723732113838196,1.7857766151428223,9.175651550292969,7.380677223205566
1.2182566860001316,-0.57749342918396,0.006605141330510378,-0.013373056426644325,-0.8162590861320496,-0.3396918773651123,-0.7521328330039978,-0.4096524119377136,1.7857766151428223,9.175651550292969,7.380677223205566
1.220314361000419,-0.57749342918396,0.006605141330510378,-0.013373056426644325,-0.8162590861320496,-0.3396918773651123,-0.7521328330039978,-0.4096524119377136,1.4882633686065674,8.890981674194336,8.139814376831055
1.2224128410002777,-0.5781745910644531,0.0059752087108790874,-0.011299582198262215,-0.8158129453659058,-0.7601808905601501,-0.8925842642784119,-0.4084137976169586,0.08580555021762848,4.2198100090026855,12.705109596252441
1.2244943590003459,-0.5781745910644531,0.0059752087108790874,-0.011299582198262215,-0.8158129453659058,-0.7601808905601501,-0.8925842642784119,-0.4084137976169586,0.08580555021762848,4.2198100090026855,12.705109596252441
1.2265664710002966,-0.5787758231163025,0.005520612467080355,-0.008776213973760605,-0.8154207468032837,-0.9391997456550598,-0.9256212115287781,-0.3500886857509613,0.48915091156959534,3.046952247619629,14.480901718139648
1.2286144580002656,-0.5790349245071411,0.005347978789359331,-0.007431444246321917,-0.8152512907981873,-0.9937196969985962,-0.9204283952713013,-0.3152581453323364,1.3950839042663574,2.051062822341919,15.853022575378418
1.2307061550000071,-0.5792611837387085,0.005210050381720066,-0.006078688893467188,-0.8151026964187622,-1.0206562280654907,-0.8966253399848938,-0.2767181396484375,0.8638479113578796,0.7063644528388977,17.164331436157227
1.2372620140004074,-0.5797674655914307,0.004980694502592087,-0.0010930342832580209,-0.814765989780426,-0.9292970299720764,-0.6743946075439453,-0.08008746802806854,-0.03069937601685524,-2.5078513622283936,19.750530242919922
1.2432907330003218,-0.5797483921051025,0.005039346404373646,0.0009453531820327044,-0.8147794604301453,-0.8184641599655151,-0.531297504901886,0.03575638309121132,-0.3738313913345337,-3.4018611907958984,19.68558120727539
1.2490954500003681,-0.5793398022651672,0.005286532454192638,0.0033617778681218624,-0.8150620460510254,-0.6390889286994934,-0.3521668314933777,0.23604853451251984,0.0018479091813787818,-4.919566631317139,13.741436004638672
1.254469144000268,-0.5783665180206299,0.005473975092172623,0.005066674668341875,-0.8157429695129395,-0.43742817640304565,-0.25801587104797363,0.4721326529979706,0.6803598403930664,-4.438283443450928,9.709232330322266
1.259973027000342,-0.576870322227478,0.00543852336704731,0.006175285205245018,-0.8167942762374878,-0.22750328481197357,-0.2255878895521164,0.6744404435157776,1.9409435987472534,-5.364382266998291,4.364513397216797
1.2651934900000015,-0.5762702822685242,0.005348717328161001,0.006397981662303209,-0.8172166347503662,-0.13074567914009094,-0.20782236754894257,0.7319594621658325,1.4666749238967896,-5.174896717071533,5.694075107574463
1.270552998000312,-0.5735170841217041,0.004570844583213329,0.00645555229857564,-0.8191553950309753,0.21989327669143677,-0.18566805124282837,0.9006253480911255,-0.3388340175151825,-4.615334987640381,0.04581540822982788
1.2769970000003923,-0.5712049007415771,0.0035363733768463135,0.005853429902344942,-0.820779025554657,0.4362753927707672,-0.1666519045829773,0.9558872580528259,-2.354987859725952,-4.366983890533447,2.401440143585205
1.2823141500002748,-0.5688253045082092,0.002240279456600547,0.00459367735311389,-0.8224424719810486,0.682134747505188,-0.091040700674057,0.9715214967727661,-4.207156658172607,-4.532574653625488,5.4722137451171875
1.288844342000175,-0.5664246678352356,0.0006566771189682186,0.0022941050119698048,-0.8241100907325745,1.0832159519195557,0.04770442843437195,0.9714048504829407,-5.078427791595459,-4.456986904144287,9.81433391571045
1.2944450630002393,-0.5640742778778076,-0.0009975132998079062,-0.0010244866134598851,-0.8257228136062622,1.2900927066802979,0.23441319167613983,0.9287249445915222,-4.484313011169434,-3.6888136863708496,12.985743522644043
1.3007010100000116,-0.5626112818717957,-0.0020161212887614965,-0.0036832825280725956,-0.8267108798027039,1.4332929849624634,0.3633648455142975,0.857999324798584,-3.5598862171173096,-2.4778568744659424,17.614665985107422
1.3060440780000135,-0.5606429576873779,-0.003151514334604144,-0.007994242943823338,-0.8280130624771118,1.3051478862762451,0.5686063170433044,0.7569724917411804,-2.608149528503418,0.7724601626396179,20.156150817871094
1.3124041060000309,-0.5583805441856384,-0.0031116590835154057,-0.012922034598886967,-0.8294784426689148,0.7950983643531799,0.7853835821151733,0.6161853671073914,-2.879884719848633,5.132154941558838,20.480239868164062
1.3175395620000927,-0.5569688677787781,-0.0014915750361979008,-0.0153498575091362,-0.8303901553153992,0.14954033493995667,0.9737783670425415,0.5206277966499329,-3.0041658878326416,8.906763076782227,17.468772888183594
1.3227645130000383,-0.5561578273773193,0.0004843332280870527,-0.016199564561247826,-0.8309186697006226,-0.3110485374927521,1.0919963121414185,0.449367880821228,-1.709991455078125,10.994457244873047,14.542469024658203
1.3261236710000048,-0.5554571151733398,0.003126678755506873,-0.016300838440656662,-0.8313795328140259,-0.7897252440452576,1.1355518102645874,0.38614997267723083,-0.09403917193412781,7.795565605163574,10.287834167480469
1.3290791070003252,-0.5551299452781677,0.004593172110617161,-0.016119154170155525,-0.8315947651863098,-0.9701529145240784,1.1229556798934937,0.36704349517822266,0.9901922941207886,8.780916213989258,9.16976547241211
1.3323332030004167,-0.5545114278793335,0.007733565755188465,-0.015217871405184269,-0.8320010304450989,-1.3004581928253174,1.0337414741516113,0.3392302989959717,1.7059727907180786,4.840274333953857,7.18928861618042
1.3362772670002414,-0.5538895130157471,0.010803485289216042,-0.013880344107747078,-0.832404375076294,-1.4390430450439453,0.8630586266517639,0.3439714014530182,3.4043688774108887,3.6335086822509766,0.9089530110359192
1.3394667940001455,-0.5535701513290405,0.01227111741900444,-0.013017910532653332,-0.8326103687286377,-1.5371103286743164,0.7461779117584229,0.35029128193855286,3.713460683822632,2.425736904144287,-0.7942245006561279
1.342444180000257,-0.552899956703186,0.014939958229660988,-0.011012386530637741,-0.8330408930778503,-1.5585079193115234,0.49614137411117554,0.3754827380180359,4.603621006011963,-0.5345106720924377,-0.3779449462890625
1.3458904600001915,-0.5521999597549438,0.017092673107981682,-0.008855724707245827,-0.8334894180297852,-1.4750430583953857,0.23723776638507843,0.39094603061676025,4.991468906402588,-2.0331459045410156,-0.11471506953239441
1.3498501030003354,-0.5514906048774719,0.01868610456585884,-0.006683106999844313,-0.8339450359344482,-1.3066234588623047,0.008854868821799755,0.39650073647499084,5.110867500305176,-3.0999631881713867,0.46725356578826904
1.3552862820001792,-0.550785481929779,0.019717931747436523,-0.004636011552065611,-0.83440101146698,-1.0907078981399536,-0.1813514530658722,0.39704659581184387,0.5987645983695984,-8.202939987182617,2.873505115509033
1.3575569080003334,-0.5504192113876343,0.01993289217352867,-0.0037767032627016306,-0.8346418738365173,-0.843742847442627,-0.2969836890697479,0.42033621668815613,1.0435070991516113,-7.189681053161621,3.057234287261963
1.3600134670000443,-0.5496740937232971,0.019774658605456352,-0.0023613539524376392,-0.8351417779922485,-0.4823654890060425,-0.5243738889694214,0.43604880571365356,1.5189491510391235,-10.1502103805542,5.655472755432129
1.3622247340003923,-0.5496740937232971,0.019774658605456352,-0.0023613539524376392,-0.8351417779922485,-0.4823654890060425,-0.5243738889694214,0.43604880571365356,1.5189491510391235,-10.1502103805542,5.655472755432129
1.3644579120000344,-0.5489243865013123,0.018716292455792427,-0.001516721211373806,-0.8356610536575317,0.05869564414024353,-0.7344351410865784,0.45134249329566956,0.0002555335231591016,-8.924906730651855,6.236474514007568
1.3666646310002761,-0.5485531091690063,0.01785043068230152,-0.001313855522312224,-0.8359240889549255,0.2984186112880707,-0.8392858505249023,0.4521547555923462,0.0002555335231591016,-8.924906730651855,6.236474514007568
1.3688300230001005,-0.5485531091690063,0.01785043068230152,-0.001313855522312224,-0.8359240889549255,0.2984186112880707,-0.8392858505249023,0.4521547555923462,0.18890543282032013,-8.780851364135742,7.163143157958984
1.3712494340002195,-0.5478218197822571,0.015526083298027515,-0.0013102955417707562,-0.836449921131134,0.735677182674408,-1.01898992061615,0.451049268245697,0.4370555281639099,-4.683538913726807,11.769779205322266
1.373499923000054,-0.5471658110618591,0.01278100349009037,-0.00164366967510432,-0.8369250297546387,0.9342553615570068,-1.071799635887146,0.39566487073898315,0.719035804271698,-4.761173725128174,12.129765510559082
1.3757751980001558,-0.5471658110618591,0.01278100349009037,-0.00164366967510432,-0.8369250297546387,0.9342553615570068,-1.071799635887146,0.39566487073898315,1.0609930753707886,-3.517742872238159,13.85863971710205
1.3778238260001672,-0.5468751788139343,0.011338750831782818,-0.0018972239922732115,-0.8371352553367615,0.9972977042198181,-1.0705305337905884,0.3638724088668823,1.482908010482788,-2.3634185791015625,15.411873817443848
1.3799991370001408,-0.5463874340057373,0.008489871397614479,-0.0025154866743832827,-0.8374857306480408,1.0390335321426392,-1.003587007522583,0.28552475571632385,1.2385225296020508,-0.1705835908651352,17.698759078979492
1.3821587300003557,-0.5461976528167725,0.007138857617974281,-0.0028556326869875193,-0.8376210331916809,1.0210930109024048,-0.9462746381759644,0.23915037512779236,1.2385225296020508,-0.1705835908651352,17.698759078979492
1.3882606230004058,-0.5458692908287048,0.00356848887167871,-0.003921885509043932,-0.8378535509109497,0.9020425081253052,-0.7259960174560547,0.08905313909053802,1.2602535486221313,2.2105352878570557,19.328027725219727
1.3936564980003823,-0.5459351539611816,0.0008486790466122329,-0.00497862184420228,-0.8378121852874756,0.7303910255432129,-0.49168652296066284,-0.07892262190580368,-0.16427375376224518,3.925555467605591,18.11577796936035
1.399541543000396,-0.5462404489517212,-0.0005055949441157281,-0.005578822456300259,-0.8376097083091736,0.5816254019737244,-0.3868969678878784,-0.22012639045715332,0.5023738145828247,4.794164657592773,12.289020538330078
1.4048261530001582,-0.5471646785736084,-0.0019235069630667567,-0.006053580902516842,-0.837000846862793,0.28560715913772583,-0.2754979431629181,-0.43422356247901917,2.016650676727295,5.681007385253906,7.499824523925781
1.410693024000011,-0.5480396151542664,-0.0024097508285194635,-0.00601707911118865,-0.8364272713661194,0.06215785816311836,-0.19217832386493683,-0.5467765927314758,1.051855444908142,4.608895778656006,3.3388731479644775
1.4160386670000662,-0.5496930480003357,-0.00277202227152884,-0.005455644801259041,-0.8353443145751953,-0.16289560496807098,-0.2218855321407318,-0.7099819183349609,0.4789576828479767,4.2071123123168945,0.6441737413406372
1.4217587080001977,-0.5516276955604553,-0.0028682039119303226,-0.004420322831720114,-0.8340738415718079,-0.31346508860588074,-0.20326097309589386,-0.7860125303268433,-1.043841004371643,3.7800018787384033,0.8849543333053589
1.426856484000382,-0.552996814250946,-0.0027879918925464153,-0.0035509373992681503,-0.8331711292266846,-0.40620070695877075,-0.2101244330406189,-0.8277812600135803,-2.660200595855713,4.70513391494751,-0.6226636171340942
1.4319539100001748,-0.5551669001579285,-0.002402862999588251,-0.0018357745138928294,-0.8317334651947021,-0.6103686094284058,-0.19853416085243225,-0.8755184412002563,-4.724828243255615,5.6055707931518555,3.5584473609924316
1.4381069380001463,-0.5581368207931519,-0.0008514716755598783,0.0012573093408718705,-0.8297475576400757,-1.0094856023788452,-0.0373786985874176,-0.8919517993927002,-5.286059856414795,4.653961658477783,10.162474632263184
1.4439800810000634,-0.5596074461936951,0.0004908987320959568,0.003079296089708805,-0.8287519216537476,-1.1559395790100098,0.07788588851690292,-0.8837873935699463,-4.805304050445557,4.022773265838623,13.089529037475586
1.44706817100041,-0.5610194802284241,0.0021967520006000996,0.004998078569769859,-0.8277845978736877,-1.3009676933288574,0.20331522822380066,-0.8445656299591064,-4.205058574676514,1.4999760389328003,15.435327529907227
1.450886494000315,-0.5623601675033569,0.004162143915891647,0.006849710829555988,-0.8268535137176514,-1.3365252017974854,0.3337380588054657,-0.7933952212333679,-2.987938642501831,4.874669551849365,19.234294891357422
1.454976877000263,-0.5635486841201782,0.006445165257900953,0.008827687241137028,-0.826010525226593,-1.4757318496704102,0.4151972830295563,-0.7037103772163391,-2.2856714725494385,1.28688383102417,20.662445068359375
1.4598679040000206,-0.5646076202392578,0.008813551627099514,0.010602411814033985,-0.8252442479133606,-1.3453415632247925,0.5127760171890259,-0.6321371793746948,-1.7708109617233276,-2.582444906234741,21.25506591796875
1.4657690980002371,-0.5660068988800049,0.011964689008891582,0.011907141655683517,-0.8242276310920715,-0.7058369517326355,0.7016544342041016,-0.5411858558654785,-2.661898374557495,-7.477090835571289,19.074710845947266
1.471154664000096,-0.5672504305839539,0.0143958805128932,0.010948712937533855,-0.823346734046936,0.08317559212446213,0.9377550482749939,-0.4681779444217682,-2.023115873336792,-9.916516304016113,16.009931564331055
1.4768467240000973,-0.5682935118675232,0.015975816175341606,0.007682234048843384,-0.8226349353790283,0.875785231590271,1.1015974283218384,-0.3608999252319336,-0.3435955345630646,-7.7547287940979,10.950834274291992
1.4823880460003238,-0.5688862800598145,0.016496654599905014,0.004603186622262001,-0.8222378492355347,1.197961688041687,1.078264832496643,-0.3245540261268616,0.9360812902450562,-7.506462097167969,6.110239505767822
1.4882008380000116,-0.5700253248214722,0.016084246337413788,-0.0022650575265288353,-0.8214665651321411,1.5367034673690796,0.7541563510894775,-0.3208646774291992,2.993009328842163,-3.052046775817871,0.7379840612411499
1.4937472400001752,-0.570899486541748,0.014663402922451496,-0.007011118810623884,-0.8208590745925903,1.5368815660476685,0.3948603868484497,-0.33192309737205505,4.19207763671875,0.9465209245681763,0.5934715867042542
1.49987979000025,-0.5717617273330688,0.01265180017799139,-0.01074531301856041,-0.8202518224716187,1.3299684524536133,0.050761278718709946,-0.3242189288139343,4.860867500305176,2.6734392642974854,1.182462453842163
1.5052325150004435,-0.5723125338554382,0.011073543690145016,-0.012624753639101982,-0.8198636174201965,1.2232025861740112,-0.16920135915279388,-0.3108992576599121,5.370623588562012,4.134512901306152,2.6226906776428223
1.507465372000297,-0.5725799202919006,0.010253334417939186,-0.013370763510465622,-0.8196757435798645,1.086376428604126,-0.2468041479587555,-0.3081439435482025,4.482264995574951,3.0463624000549316,1.3427815437316895
1.5099290740004108,-0.5731214284896851,0.008657236583530903,-0.014329934492707253,-0.8192993998527527,0.7330668568611145,-0.43364137411117554,-0.32352083921432495,3.229029655456543,8.119720458984375,4.156452178955078
1.51221776400007,-0.5734105110168457,0.007947691716253757,-0.0144454101100564,-0.8191022872924805,0.5065929293632507,-0.517583966255188,-0.33868181705474854,3.0559897422790527,9.05669116973877,5.246301651000977
1.5142414660003851,-0.5737094879150391,0.007310835178941488,-0.014310292899608612,-0.8189011812210083,0.2597865164279938,-0.6018495559692383,-0.3520975708961487,1.8305375576019287,9.474404335021973,6.541542053222656
1.516319298000326,-0.5740155577659607,0.006753949914127588,-0.013918216340243816,-0.8186982274055481,0.003559940028935671,-0.683867871761322,-0.3619426190853119,1.8305375576019287,9.474404335021973,6.541542053222656
1.5183396140000696,-0.5743260383605957,0.006281515117734671,-0.013273639604449272,-0.8184949159622192,-0.2516021430492401,-0.7597272396087646,-0.3686754107475281,2.2571728229522705,9.76976490020752,8.405915260314941
1.520415542000137,-0.5746409893035889,0.005889602936804295,-0.012391347438097,-0.8182905912399292,-0.4923763871192932,-0.8303983211517334,-0.3754480481147766,1.4154564142227173,9.236103057861328,9.289846420288086
1.5227701930002695,-0.5749576091766357,0.005571975838392973,-0.011292742565274239,-0.8180863261222839,-0.7120598554611206,-0.8939346671104431,-0.37903696298599243,1.7221099138259888,5.584136962890625,12.916379928588867
1.5248390690003362,-0.5752537846565247,0.005311151500791311,-0.010090406984090805,-0.8178954720497131,-0.8298465013504028,-0.9069514870643616,-0.3557986319065094,1.0656013488769531,5.278472900390625,13.202064514160156
1.52691218200016,-0.5757833123207092,0.004934716038405895,-0.007456456311047077,-0.8175534605979919,-0.9986608624458313,-0.9082728624343872,-0.305959016084671,1.4399113655090332,2.6099629402160645,16.350858688354492
1.5290049110003565,-0.5757833123207092,0.004934716038405895,-0.007456456311047077,-0.8175534605979919,-0.9986608624458313,-0.9082728624343872,-0.305959016084671,1.4399113655090332,2.6099629402160645,16.350858688354492
1.5310819210003501,-0.5760068297386169,0.004812161438167095,-0.006105939857661724,-0.8174079060554504,-1.031366229057312,-0.8787486553192139,-0.2723124921321869,2.38655948638916,1.8903794288635254,17.45267105102539
1.5360852340004385,-0.5764706134796143,0.0046903775073587894,-0.0022515759337693453,-0.8171013593673706,-0.993323028087616,-0.7086508870124817,-0.14523428678512573,1.1849223375320435,-1.2395045757293701,19.568574905395508
1.5399176330001865,-0.576545238494873,0.004715255461633205,-0.0011069555766880512,-0.8170508742332458,-0.9491486549377441,-0.6394438147544861,-0.09553954005241394,1.1624183654785156,-1.953726053237915,19.503774642944336
1.5442876210004215,-0.576562225818634,0.004838178865611553,0.0009258365607820451,-0.8170384168624878,-0.8356146812438965,-0.5010262727737427,0.012271313928067684,-0.020504005253314972,-3.1197612285614014,19.602359771728516
1.5481579500001317,-0.5761957764625549,0.005107911303639412,0.0033363294787704945,-0.8172889351844788,-0.6382943391799927,-0.3496132493019104,0.2196330726146698,0.046518124639987946,-4.557373046875,14.966297149658203
1.5517764660003195,-0.5756217241287231,0.005177662707865238,0.0045669348910450935,-0.8176869750022888,-0.4827655255794525,-0.329270601272583,0.3887740969657898,1.2354943752288818,-4.726595401763916,9.06885051727295
1.555244385000151,-0.5752363204956055,0.005149716045707464,0.005081736948341131,-0.8179552555084229,-0.40562981367111206,-0.3223317265510559,0.4667367935180664,1.5667004585266113,-4.953388690948486,6.000163555145264
1.5599508210002568,-0.5737184286117554,0.004761743824928999,0.006228236015886068,-0.8190150856971741,-0.14186878502368927,-0.32368460297584534,0.6803691983222961,1.7796134948730469,-5.652453422546387,4.158484935760498
1.5635137750000467,-0.5731172561645508,0.004540879745036364,0.006426719482988119,-0.8194355964660645,-0.03609064966440201,-0.3005113899707794,0.7313396334648132,-0.43834009766578674,-3.856441020965576,6.9911909103393555
1.5667273360004401,-0.5718246102333069,0.004015956539660692,0.006613530684262514,-0.8203394412994385,0.11408393085002899,-0.26762500405311584,0.8043748736381531,-0.12828800082206726,-5.265247821807861,-0.11368150264024734
1.5704694290002408,-0.5711269378662109,0.003678525798022747,0.006604090798646212,-0.8208269476890564,0.20111781358718872,-0.27798205614089966,0.8489362597465515,-0.9125751256942749,-4.705939292907715,1.5301493406295776
1.57359654100037,-0.5688835978507996,0.00240657408721745,0.006154680624604225,-0.8223915100097656,0.4479817748069763,-0.25817835330963135,0.9325090050697327,-2.8145158290863037,-5.198604106903076,2.800213098526001
1.5765829440001653,-0.5688835978507996,0.00240657408721745,0.006154680624604225,-0.8223915100097656,0.4479817748069763,-0.25817835330963135,0.9325090050697327,-2.8145158290863037,-5.198604106903076,2.800213098526001
1.5793106210003316,-0.5664977431297302,0.000743582786526531,0.004823373164981604,-0.8240488767623901,0.8039658069610596,-0.17560525238513947,0.9787698984146118,-4.9018635749816895,-6.2140350341796875,6.247303485870361
1.5826716130000023,-0.5664977431297302,0.000743582786526531,0.004823373164981604,-0.8240488767623901,0.8039658069610596,-0.17560525238513947,0.9787698984146118,-4.9018635749816895,-6.2140350341796875,6.247303485870361
1.585615147000226,-0.5648701190948486,-0.0005575608229264617,0.003251886460930109,-0.8251731991767883,1.0958372354507446,-0.06602934002876282,0.9871566295623779,-5.285033226013184,-6.589624404907227,8.914325714111328
1.5884823510000388,-0.5632665157318115,-0.001982587156817317,0.0010554102482274175,-0.826272189617157,1.3669577836990356,0.06355392932891846,0.9627748727798462,-4.1849188804626465,-4.648265361785889,12.774943351745605
1.5912179430001743,-0.5624884366989136,-0.002697188640013337,-0.00023711303947493434,-0.8268007636070251,1.472588300704956,0.13780657947063446,0.9373376965522766,-3.645172595977783,-4.132274627685547,15.020204544067383
1.5945103180001752,-0.5610132217407227,-0.004047905094921589,-0.003147395560517907,-0.8277909755706787,1.6027724742889404,0.3012855648994446,0.8700207471847534,-2.764378309249878,-2.0218777656555176,17.66571044921875
1.5998439490003875,-0.5589768290519714,-0.005545333959162235,-0.007775194011628628,-0.8291282653808594,1.4980192184448242,0.5288175940513611,0.7775027751922607,-2.5386078357696533,2.031689167022705,19.668746948242188
1.604607431000204,-0.5577226281166077,-0.005963983479887247,-0.010625827126204967,-0.8299379348754883,1.221912145614624,0.6598727107048035,0.7299268841743469,-2.6981046199798584,3.7162585258483887,20.085630416870117
1.6111662850003086,-0.5560107231140137,-0.005564140155911446,-0.014149551279842854,-0.8310360312461853,0.7424947619438171,0.825647234916687,0.6366099119186401,-3.5264267921447754,7.41282844543457,18.666406631469727
1.6141724540002542,-0.5554971098899841,-0.0051229409873485565,-0.015045937150716782,-0.8313665390014648,0.497799277305603,0.8741591572761536,0.5993543863296509,-3.303241014480591,6.607780456542969,17.259014129638672
1.6184760600003756,-0.5541003942489624,-0.0029123560525476933,-0.016854029148817062,-0.8322740793228149,-0.12020169943571091,0.9860765933990479,0.5094228982925415,-1.8433066606521606,7.687996864318848,16.667667388916016
1.6226351200002682,-0.5533128976821899,-0.00073128507938236,-0.017247021198272705,-0.8327946066856384,-0.5729458332061768,1.0295759439468384,0.4336242973804474,-0.7212594747543335,6.635250568389893,11.957354545593262
1.6270663700001933,-0.5529519319534302,0.0005119859706610441,-0.017206531018018723,-0.8330352902412415,-0.7255261540412903,1.0193876028060913,0.4124000668525696,-0.3411247730255127,6.461444854736328,7.666043758392334
1.631998312000178,-0.5518926978111267,0.004474853165447712,-0.016114821657538414,-0.833747386932373,-1.159989356994629,0.834556519985199,0.4018118381500244,2.2573649883270264,3.6198770999908447,4.192282676696777
1.6369935800003077,-0.5508105158805847,0.0082181915640831,-0.013921381905674934,-0.834473729133606,-1.3849797248840332,0.5305204391479492,0.41713225841522217,3.9110329151153564,0.34162601828575134,2.000933885574341
1.6419504070004223,-0.5500695109367371,0.01032317616045475,-0.012053601443767548,-0.834968090057373,-1.360634207725525,0.30934375524520874,0.4247361719608307,4.303811550140381,-0.2005777359008789,1.762505292892456
1.6472461380003551,-0.5489792227745056,0.012698507867753506,-0.008919831365346909,-0.8356919288635254,-1.3179789781570435,-0.02509859763085842,0.4096526503562927,4.848377704620361,-2.330467939376831,2.3114664554595947
1.6522565740001482,-0.5479531288146973,0.01406411174684763,-0.005712140817195177,-0.8363713026046753,-1.0669329166412354,-0.2922658920288086,0.3820546865463257,4.497809410095215,-2.730325937271118,2.616697072982788
1.6544762970002012,-0.547630250453949,0.014288860373198986,-0.0047103650867938995,-0.8365851640701294,-0.9667707681655884,-0.36211660504341125,0.3718441426753998,4.295515060424805,-3.0190038681030273,2.6376936435699463
1.6565367270000024,-0.5473156571388245,0.014404388144612312,-0.003767929505556822,-0.836793839931488,-0.8571729063987732,-0.420956552028656,0.36345645785331726,4.295515060424805,-3.0190038681030273,2.6376936435699463
1.6585900030004268,-0.5470077991485596,0.014414490200579166,-0.002907921327278018,-0.8369983434677124,-0.7303838133811951,-0.46402937173843384,0.3571566939353943,2.1359386444091797,-9.010461807250977,5.906164646148682
1.6606847360003485,-0.5466912984848022,0.01422681100666523,-0.0022193645127117634,-0.8372104167938232,-0.4788379669189453,-0.5358695387840271,0.37152859568595886,2.1359386444091797,-9.010461807250977,5.906164646148682
1.6627530210002988,-0.5466912984848022,0.01422681100666523,-0.0022193645127117634,-0.8372104167938232,-0.4788379669189453,-0.5358695387840271,0.37152859568595886,2.6880276203155518,-8.003998756408691,5.844029426574707
1.6648608280002009,-0.5460472106933594,0.013343757018446922,-0.0013186539290472865,-0.8376470804214478,-0.024028509855270386,-0.6469284296035767,0.387123703956604,1.719334363937378,-8.933534622192383,7.630904197692871
1.6669863370002531,-0.5457240343093872,0.012638415209949017,-0.00111646787263453,-0.8378689289093018,0.21118423342704773,-0.7037644386291504,0.3900769352912903,2.0754408836364746,-9.136686325073242,8.299714088439941
1.669120803000169,-0.5454013347625732,0.011761615984141827,-0.0010748000349849463,-0.8380917906761169,0.43925178050994873,-0.7598394155502319,0.39244845509529114,1.0711318254470825,-8.650446891784668,9.070027351379395
1.671254197000053,-0.5450809597969055,0.01072633545845747,-0.0011786899995058775,-0.8383139967918396,0.6477054953575134,-0.8132665753364563,0.39200523495674133,-0.687276303768158,-4.048008918762207,13.740202903747559
1.6733577260001766,-0.544788122177124,0.009645652025938034,-0.0013525312533602118,-0.8385171890258789,0.7314130663871765,-0.813028872013092,0.35938164591789246,0.5756071209907532,-4.755638599395752,12.845638275146484
1.675472897000418,-0.5445173978805542,0.008505125530064106,-0.001603950746357441,-0.8387048840522766,0.8293001055717468,-0.8208253383636475,0.3332127332687378,0.8386167883872986,-3.526392698287964,14.330106735229492
1.6777055130000917,-0.544273316860199,0.007335325237363577,-0.0019177012145519257,-0.8388736844062805,0.8977740406990051,-0.8113196492195129,0.30123740434646606,1.0137944221496582,-2.2480993270874023,15.755264282226562
1.6797788670000955,-0.5438819527626038,0.005028930027037859,-0.002667785855010152,-0.8391424417495728,0.9462981820106506,-0.7434043884277344,0.22096167504787445,1.325514793395996,-0.2525283396244049,17.81728744506836
1.6819401420002578,-0.5438819527626038,0.005028930027037859,-0.002667785855010152,-0.8391424417495728,0.9462981820106506,-0.7434043884277344,0.22096167504787445,1.325514793395996,-0.2525283396244049,17.81728744506836
1.6871520490003604,-0.5435821413993835,0.0019489327678456903,-0.00394002441316843,-0.8393444418907166,0.8837489485740662,-0.5683049559593201,0.07438640296459198,1.0066241025924683,1.8493106365203857,19.348169326782227
1.6922010260000206,-0.543678343296051,-0.000441363692516461,-0.005231333896517754,-0.8392772078514099,0.7457560300827026,-0.3702850043773651,-0.09247907251119614,-0.23676230013370514,3.634613513946533,18.716604232788086
1.6973716560000867,-0.5440022945404053,-0.001649324083700776,-0.006019019056111574,-0.8390605449676514,0.6264978051185608,-0.2779195308685303,-0.2318807691335678,0.1394013613462448,4.681985855102539,13.565380096435547
1.7022686640002576,-0.5449745655059814,-0.0029931007884442806,-0.006912010256201029,-0.83841872215271,0.4319438934326172,-0.19492270052433014,-0.4635983109474182,0.43090909719467163,4.375020503997803,10.360357284545898
1.707221514000139,-0.5459330081939697,-0.003643885487690568,-0.0072499425150454044,-0.8377895355224609,0.2858951687812805,-0.19129274785518646,-0.6101899743080139,0.7705511450767517,4.143021106719971,6.343551158905029
1.7124819190003109,-0.5477634072303772,-0.004339120350778103,-0.007302635349333286,-0.8365901708602905,0.05387723818421364,-0.18592938780784607,-0.7810384631156921,1.4747072458267212,5.179492473602295,3.1971049308776855
1.717439669000214,-0.5491854548454285,-0.0045504383742809296,-0.006973739247769117,-0.8356590270996094,-0.11308465152978897,-0.2001541703939438,-0.8719348311424255,-0.03452659770846367,4.352581977844238,1.3244129419326782
1.7227022880001641,-0.5515026450157166,-0.004596633370965719,-0.006023189518600702,-0.8341386914253235,-0.3296342194080353,-0.1919706016778946,-0.9434465765953064,-1.7402441501617432,4.008489608764648,2.0969979763031006
1.7276272270000845,-0.5531226396560669,-0.004392310045659542,-0.005078137386590242,-0.8330727815628052,-0.504324734210968,-0.18183180689811707,-0.978065013885498,-3.230433225631714,4.816293716430664,2.528426170349121
1.7327679630002422,-0.5556038022041321,-0.003564560553058982,-0.003164088586345315,-0.8314335346221924,-0.7892331480979919,-0.09172169864177704,-0.9932882189750671,-4.687912464141846,4.955329895019531,6.682243347167969
1.7380894610000723,-0.5580680966377258,-0.0017976068193092942,-0.0006037492421455681,-0.8297929763793945,-1.1689316034317017,0.0676688402891159,-0.9772368669509888,-5.282592296600342,5.276138782501221,9.287750244140625
1.7442377090001173,-0.5604085922241211,0.0009169848053716123,0.0023543054703623056,-0.8282124400138855,-1.337602972984314,0.19964303076267242,-0.9387891292572021,-4.148378372192383,3.1307613849639893,14.04161262512207
1.749550912000359,-0.5618481040000916,0.003080232534557581,0.004225100390613079,-0.8272238969802856,-1.3934470415115356,0.41013646125793457,-0.8513728380203247,-3.3707406520843506,0.6945928931236267,17.961740493774414
1.7539324310000666,-0.5637845396995544,0.006622145418077707,0.006575987674295902,-0.8258692026138306,-1.2655293941497803,0.5936796069145203,-0.7500362396240234,-2.8543941974639893,-1.1310354471206665,19.79712677001953
1.7581933390001723,-0.5649188756942749,0.009005238302052021,0.00773063488304615,-0.8250610828399658,-1.111520767211914,0.6846310496330261,-0.6717668175697327,-2.4081830978393555,-2.87143611907959,20.619720458984375
1.7625555820000045,-0.5654385089874268,0.01016297098249197,0.008133582770824432,-0.8246877193450928,-0.9846892356872559,0.7349469065666199,-0.6343070268630981,-3.015977382659912,-5.516211986541748,19.538742065429688
1.7664102620001358,-0.5668497085571289,0.013216235674917698,0.008044682443141937,-0.8236759305000305,-0.3230821192264557,0.933029294013977,-0.5401000380516052,-2.5882482528686523,-8.183286666870117,18.14426612854004
1.7699716230004015,-0.5676805377006531,0.014877439476549625,0.0068392688408494,-0.8230860829353333,0.144731804728508,1.0646436214447021,-0.47770100831985474,-1.553118348121643,-11.791769981384277,14.820639610290527
1.7738371230002485,-0.5680517554283142,0.01553170196712017,0.005829848814755678,-0.8228256106376648,0.4631694257259369,1.1179568767547607,-0.4339340925216675,-1.082952857017517,-9.131976127624512,11.690650939941406
1.7773955080001542,-0.5687360167503357,0.016475794836878777,0.0032094072084873915,-0.8223488330841064,0.9512749314308167,1.1338462829589844,-0.3817400634288788,0.21873369812965393,-6.874979019165039,6.940708637237549
1.7805630040002143,-0.5693874359130859,0.01690298691391945,7.097006164258346e-05,-0.8218955397605896,1.2423402070999146,1.0446218252182007,-0.36799395084381104,0.9911630153656006,-5.975589752197266,5.483185291290283
1.7841928910002025,-0.5700265169143677,0.016811344772577286,-0.0033024130389094353,-0.8214476704597473,1.4916362762451172,0.8793469667434692,-0.3584580421447754,3.355030059814453,-1.420020580291748,2.9024863243103027
1.7876173300001028,-0.5703467726707458,0.016597475856542587,-0.004979375749826431,-0.8212212324142456,1.5055798292160034,0.7829797267913818,-0.36320722103118896,3.3467888832092285,-0.9792868494987488,0.33210232853889465
1.7905240760001107,-0.5710086226463318,0.015824193134903908,-0.008191775530576706,-0.8207506537437439,1.5796527862548828,0.5349661111831665,-0.38013702630996704,4.711797714233398,1.1469383239746094,1.0584429502487183
1.7935647390004306,-0.5713450312614441,0.015297621488571167,-0.009677208960056305,-0.8205103278160095,1.5271399021148682,0.4170592129230499,-0.3855506181716919,4.349880218505859,1.0140929222106934,-0.3646053671836853
1.7968178830001307,-0.5720260739326477,0.014028649777173996,-0.012307319790124893,-0.8200231194496155,1.4172406196594238,0.17082837224006653,-0.3932444751262665,5.069962978363037,2.3042657375335693,0.7616217732429504
1.7998675220001132,-0.5723654627799988,0.013317513279616833,-0.013430275954306126,-0.8197804689407349,1.3353866338729858,0.058438558131456375,-0.3926175534725189,4.285419940948486,-0.013460897840559483,-0.8556652665138245
1.8028725290000693,-0.573034405708313,0.01169013511389494,-0.01538185402750969,-0.8193035125732422,1.2111313343048096,-0.15558868646621704,-0.38613322377204895,4.933101177215576,3.2254629135131836,0.8272704482078552
1.8049444100001892,-0.5733652114868164,0.010861258953809738,-0.016139347106218338,-0.8190689086914062,1.103068232536316,-0.24737748503684998,-0.3838905394077301,0.07367464154958725,7.867771148681641,2.8778209686279297
1.8070300170002156,-0.5737119317054749,0.010072443634271622,-0.016634626314044,-0.8188262581825256,0.8656301498413086,-0.3650779128074646,-0.4050008952617645,1.1320714950561523,7.555461883544922,3.3462443351745605
1.8091229360002217,-0.5737119317054749,0.010072443634271622,-0.016634626314044,-0.8188262581825256,0.8656301498413086,-0.3650779128074646,-0.4050008952617645,1.1320714950561523,7.555461883544922,3.3462443351745605
1.8112159360002806,-0.574435293674469,0.008655869401991367,-0.016891436651349068,-0.818329930305481,0.3946966528892517,-0.5587320327758789,-0.43188998103141785,0.9880911707878113,9.375927925109863,5.412109375
1.8133008710001377,-0.5748083591461182,0.00805120449513197,-0.016618642956018448,-0.8180796504020691,0.13156099617481232,-0.6556531190872192,-0.4411732852458954,1.4900816679000854,9.791643142700195,6.360597133636475
1.8153864170003544,-0.5755658745765686,0.0070722526870667934,-0.015276188962161541,-0.8175821304321289,-0.38685178756713867,-0.8337158560752869,-0.45218005776405334,0.5402588844299316,9.05505657196045,8.165122032165527
1.8174699290002536,-0.5755658745765686,0.0070722526870667934,-0.015276188962161541,-0.8175821304321289,-0.38685178756713867,-0.8337158560752869,-0.45218005776405334,0.5402588844299316,9.05505657196045,8.165122032165527
1.8195583510000688,-0.5759455561637878,0.00668631074950099,-0.014245657250285149,-0.8173366189002991,-0.6139735579490662,-0.912742018699646,-0.4531325697898865,0.5204069018363953,8.592889785766602,8.881312370300293
1.8216757250002047,-0.5763224959373474,0.006361283361911774,-0.013005686923861504,-0.817094087600708,-0.8202999234199524,-0.9835615158081055,-0.45146703720092773,0.32389798760414124,4.4126482009887695,12.515324592590332
1.8237654389999989,-0.5766738057136536,0.00607325229793787,-0.011680793948471546,-0.8168684244155884,-0.911393940448761,-1.0020478963851929,-0.42178523540496826,0.5598189234733582,4.436173915863037,12.625736236572266
1.8258748190000915,-0.5772994160652161,0.005602906923741102,-0.008831183426082134,-0.8164655566215515,-1.0499238967895508,-1.013613224029541,-0.3607615828514099,1.0558909177780151,1.7580565214157104,15.621907234191895
1.8279715450003096,-0.5775639414787292,0.005415914114564657,-0.007386395242065191,-0.8162940740585327,-1.068672776222229,-0.988123893737793,-0.3213794231414795,1.0558909177780151,1.7580565214157104,15.621907234191895
1.8300757960000738,-0.5775639414787292,0.005415914114564657,-0.007386395242065191,-0.8162940740585327,-1.068672776222229,-0.988123893737793,-0.3213794231414795,1.2729076147079468,0.6641888618469238,16.756502151489258
1.834156692000306,-0.5779778361320496,0.005130821373313665,-0.004609009716659784,-0.8160232901573181,-1.036485195159912,-0.8921152949333191,-0.22981159389019012,1.6551706790924072,-0.9189512729644775,18.301027297973633
1.8377423070000987,-0.5782756209373474,0.004918023012578487,-0.0009814336663112044,-0.8158260583877563,-0.8879785537719727,-0.6838549971580505,-0.06888249516487122,0.5771031379699707,-2.87631893157959,19.29172706604004
1.8410117710000122,-0.5782815217971802,0.004900197498500347,4.462720607989468e-05,-0.8158226013183594,-0.8267470002174377,-0.6078771948814392,-0.011848339810967445,0.872553825378418,-3.7142298221588135,16.84126091003418
1.8442421830000058,-0.5782325267791748,0.004893953911960125,0.0009811241179704666,-0.8158567547798157,-0.7606431841850281,-0.5468223094940186,0.05510677024722099,0.31973278522491455,-4.198558807373047,16.701143264770508
1.847670589000245,-0.5777146220207214,0.004852204583585262,0.0032704556360840797,-0.816217839717865,-0.540864109992981,-0.425284206867218,0.2911176085472107,0.8312711119651794,-4.729363441467285,11.095993041992188
1.8508110350003335,-0.5774073600769043,0.004802979528903961,0.0038815471343696117,-0.8164328336715698,-0.4711337089538574,-0.39526307582855225,0.3718687891960144,1.1917667388916016,-4.806849956512451,9.172652244567871
1.8538522990002093,-0.5766183137893677,0.004626122768968344,0.004840271547436714,-0.8169862031936646,-0.2904634177684784,-0.32622674107551575,0.5109056234359741,2.2810747623443604,-5.718383312225342,5.872627258300781
1.8570191240000895,-0.5761451125144958,0.004498545546084642,0.005163081921637058,-0.8173187375068665,-0.19074787199497223,-0.2941960394382477,0.5762194991111755,0.21139121055603027,-4.060758113861084,7.339177131652832
1.8603380290001041,-0.5750648379325867,0.004165529739111662,0.005607496947050095,-0.8180780410766602,-0.04840528964996338,-0.26161181926727295,0.6844109296798706,0.743744969367981,-4.7225565910339355,2.1132078170776367
1.8632613760000822,-0.5744605660438538,0.003939734306186438,0.005734551697969437,-0.81850266456604,0.025770744308829308,-0.26294028759002686,0.7367156147956848,-0.03330923989415169,-4.1885271072387695,3.665119171142578
1.8659803170003215,-0.5738241076469421,0.0036845046561211348,0.005799861159175634,-0.8189497590065002,0.0932195633649826,-0.2518351674079895,0.7760728597640991,-0.2640640437602997,-4.285971641540527,2.1607160568237305
1.8690241050003351,-0.5724585056304932,0.0030522169545292854,0.005766780581325293,-0.8199077248573303,0.23050467669963837,-0.259827196598053,0.8511635661125183,-1.3308836221694946,-4.05028772354126,2.4199881553649902
1.872169340000255,-0.5710008144378662,0.002274906961247325,0.005506590474396944,-0.8209279179573059,0.36548712849617004,-0.246514230966568,0.8990315794944763,-2.626168727874756,-5.046777725219727,1.8614628314971924
1.8754891470002804,-0.5702446103096008,0.0018221600912511349,0.005263474769890308,-0.8214560747146606,0.45928746461868286,-0.23821914196014404,0.9204426407814026,-2.86991286277771,-4.388509273529053,4.194608211517334
1.8808018690001518,-0.5679165124893188,0.00028424515039660037,0.003966712858527899,-0.8230765461921692,0.7659227848052979,-0.14236915111541748,0.9554104208946228,-4.4162163734436035,-5.0829997062683105,7.108343601226807
1.8876457770002162,-0.5655457377433777,-0.001412362209521234,0.0016730959760025144,-0.8247140049934387,1.0400301218032837,0.025404391810297966,0.9569762945175171,-4.198385715484619,-3.5316076278686523,11.3045015335083
1.8929087070000605,-0.5632003545761108,-0.0029922369867563248,-0.0014179268619045615,-0.8263137340545654,1.2167283296585083,0.2104315608739853,0.9315205216407776,-4.569373607635498,-3.3207626342773438,14.480215072631836
1.8988799710000421,-0.5616795420646667,-0.003941498231142759,-0.003871648572385311,-0.8273364305496216,1.2871475219726562,0.3305053114891052,0.9084450006484985,-3.9478230476379395,-2.8514606952667236,17.790029525756836
1.902315159000409,-0.5595895648002625,-0.005034023895859718,-0.007969629019498825,-0.8287162780761719,1.3046187162399292,0.5344427824020386,0.7981529831886292,-3.8041136264801025,0.2686557471752167,18.258424758911133
1.9055864560000373,-0.5589497089385986,-0.005270311608910561,-0.009349646978080273,-0.829132080078125,1.275774598121643,0.5836209058761597,0.7579002380371094,-2.036498785018921,-2.084172010421753,21.47597312927246
1.910577998000008,-0.5577762126922607,-0.0056365299969911575,-0.012121020816266537,-0.8298836946487427,1.2177855968475342,0.6489899754524231,0.6701413989067078,-1.884531021118164,2.1669416427612305,21.48870086669922
1.9158446850001383,-0.5562371015548706,-0.005249159410595894,-0.015557769685983658,-0.8308613896369934,0.6213203072547913,0.8179328441619873,0.5679915547370911,-2.969541072845459,7.377034664154053,19.074522018432617
1.9217383250002058,-0.5549049377441406,-0.00303844828158617,-0.01742977648973465,-0.8317255973815918,-0.18736599385738373,1.0338845252990723,0.48025083541870117,-1.6862151622772217,12.634934425354004,14.031322479248047
1.9273428640003658,-0.5535199046134949,0.0024891276843845844,-0.01704925298690796,-0.8326576948165894,-1.142422080039978,1.0938472747802734,0.35607704520225525,0.15055663883686066,7.761955261230469,4.852442264556885
1.9327254840000023,-0.5529029369354248,0.005678694695234299,-0.01585426740348339,-0.8330754637718201,-1.4256062507629395,0.9707313776016235,0.34016263484954834,1.7925101518630981,3.52132511138916,3.6691086292266846
1.9384551230000397,-0.5519741773605347,0.010200307704508305,-0.01322905719280243,-0.8336938619613647,-1.601245403289795,0.6691399812698364,0.34500858187675476,3.3160769939422607,0.6624020934104919,1.1078764200210571
1.9437708910004403,-0.5510200262069702,0.013844095170497894,-0.010057826526463032,-0.8343165516853333,-1.5143381357192993,0.3127126693725586,0.35431987047195435,3.9095332622528076,1.0383433103561401,-0.048845771700143814
1.949480092000158,-0.5503944158554077,0.015702951699495316,-0.007729430217295885,-0.8347213268280029,-1.4408177137374878,0.08278876543045044,0.344381183385849,4.610857009887695,-2.03019380569458,1.295487642288208
1.9548995500003912,-0.5494922399520874,0.017472071573138237,-0.004392004106193781,-0.8353045582771301,-1.1532407999038696,-0.21210715174674988,0.33174002170562744,4.931838035583496,-3.5313560962677,2.371129035949707
1.9572930630001792,-0.5492014288902283,0.017798272892832756,-0.003378617810085416,-0.8354936242103577,-1.0316435098648071,-0.2863958477973938,0.327656626701355,0.415375679731369,-7.755191802978516,4.194579601287842
1.959518847000254,-0.548590898513794,0.01782752200961113,-0.001793998060747981,-0.8358989357948303,-0.5579794049263,-0.4662385880947113,0.35861101746559143,2.3455862998962402,-9.34544849395752,5.8759050369262695
1.96176037000032,-0.548590898513794,0.01782752200961113,-0.001793998060747981,-0.8358989357948303,-0.5579794049263,-0.4662385880947113,0.35861101746559143,2.3455862998962402,-9.34544849395752,5.8759050369262695
1.964006201000302,-0.5479575395584106,0.017016103491187096,-0.000881328945979476,-0.8363326191902161,-0.030158381909132004,-0.63572758436203,0.381407231092453,1.9327789545059204,-10.054731369018555,7.483152866363525
1.9662696340001276,-0.5479575395584106,0.017016103491187096,-0.000881328945979476,-0.8363326191902161,-0.030158381909132004,-0.63572758436203,0.381407231092453,1.9327789545059204,-10.054731369018555,7.483152866363525
1.9685368340001332,-0.5473148226737976,0.015358071774244308,-0.0006548790261149406,-0.836785614490509,0.4760078191757202,-0.7988814115524292,0.39425793290138245,0.8593275547027588,-9.250143051147461,8.980618476867676
1.9706971280002108,-0.5469948053359985,0.014244849793612957,-0.000768776168115437,-0.8370144367218018,0.6995251774787903,-0.8724956512451172,0.39554810523986816,0.8521130084991455,-8.781237602233887,9.550440788269043
1.9728093530002297,-0.5469948053359985,0.014244849793612957,-0.000768776168115437,-0.8370144367218018,0.6995251774787903,-0.8724956512451172,0.39554810523986816,0.8521130084991455,-8.781237602233887,9.550440788269043
1.974920786000439,-0.5463838577270508,0.01161795575171709,-0.0013301292201504111,-0.8374532461166382,0.9947182536125183,-0.9581173062324524,0.3671497404575348,0.8925210237503052,-4.639779567718506,12.994728088378906
1.977005721000296,-0.5461118221282959,0.010212293826043606,-0.001703849178738892,-0.8376482725143433,1.0775845050811768,-0.9748857021331787,0.3405662178993225,1.0571850538253784,-3.206956386566162,14.56742000579834
1.9790685450002456,-0.5458666086196899,0.008785330690443516,-0.0021188268437981606,-0.8378233313560486,1.1240848302841187,-0.9700396656990051,0.3076944649219513,1.2847388982772827,-1.850286841392517,15.97271728515625
1.9811979020000763,-0.5456525683403015,0.007372500840574503,-0.0025575498584657907,-0.8379751443862915,1.1365872621536255,-0.9450978636741638,0.26904791593551636,1.5104188919067383,-0.726375162601471,17.10524559020996
1.986683873000402,-0.5452300310134888,0.0034610657021403313,-0.003907932434231043,-0.8382702469825745,1.0473829507827759,-0.7877223491668701,0.12994951009750366,1.2946091890335083,1.7771806716918945,19.19305992126465
1.9918185970000195,-0.5451586246490479,0.0012732242466881871,-0.004772611893713474,-0.8383183479309082,0.9261016249656677,-0.6443960070610046,0.020710231736302376,0.6757436990737915,3.0267586708068848,19.2984676361084
1.9975420250002571,-0.5454088449478149,-0.0012790809851139784,-0.005957358051091433,-0.8381479978561401,0.7273623943328857,-0.42563551664352417,-0.15612195432186127,0.39663779735565186,4.930838108062744,14.19579792022705
2.0033634720002738,-0.5462062358856201,-0.0030768082942813635,-0.006813365034759045,-0.8376173377037048,0.489642471075058,-0.3222920596599579,-0.3983432352542877,0.9082834720611572,5.169394493103027,10.643022537231445
2.0088731360001475,-0.5475596785545349,-0.004160815849900246,-0.007094672415405512,-0.836726188659668,0.16757236421108246,-0.22659678757190704,-0.6052175760269165,2.5734028816223145,5.8487138748168945,5.013835430145264
2.0146115510001437,-0.5493573546409607,-0.004687861539423466,-0.00676356116309762,-0.8355469703674316,-0.07842925190925598,-0.21345734596252441,-0.7657389640808105,0.45410025119781494,4.389828681945801,2.472196578979492
2.019919905000279,-0.5507344007492065,-0.004826931748539209,-0.006238186731934547,-0.8346433043479919,-0.21255739033222198,-0.20218954980373383,-0.8354817032814026,-0.19314657151699066,4.370545864105225,0.2382597029209137
2.02538768300019,-0.5537504553794861,-0.004706240259110928,-0.004576743580400944,-0.8326568007469177,-0.4570450782775879,-0.2055514007806778,-0.9296126365661621,-2.5177698135375977,4.230235576629639,2.174480438232422
2.0299308190001284,-0.5545389652252197,-0.004572060890495777,-0.004029367119073868,-0.8321354389190674,-0.531403660774231,-0.19744686782360077,-0.9432656764984131,-3.9305832386016846,6.1366658210754395,0.7855083346366882
2.034298833000321,-0.5569655299186707,-0.003716057166457176,-0.0019178548827767372,-0.8305251002311707,-0.8269046545028687,-0.12376557290554047,-0.9713540077209473,-5.337177753448486,6.438477039337158,6.133136749267578
2.0387560220001433,-0.5585771203041077,-0.00260726734995842,-0.00011683869524858892,-0.8294484615325928,-1.1524560451507568,-0.016999438405036926,-0.9594029188156128,-5.057119846343994,6.203425407409668,8.978581428527832
2.042737034000311,-0.559361457824707,-0.0018448889022693038,0.0009337291121482849,-0.8289213180541992,-1.2992229461669922,0.04406445100903511,-0.9423577189445496,-4.232068061828613,4.301245212554932,11.063546180725098
2.04661133000036,-0.5615914463996887,0.0010644401190802455,0.004227604251354933,-0.82740318775177,-1.510165810585022,0.26689600944519043,-0.866633951663971,-2.7429141998291016,3.0893373489379883,16.70557975769043
2.0510348669999985,-0.5629194974899292,0.003463030094280839,0.006446350831538439,-0.8264793753623962,-1.627105474472046,0.4007324278354645,-0.7835925221443176,-2.041605234146118,1.8098335266113281,18.893062591552734
2.055080999000438,-0.5635331869125366,0.004751449450850487,0.007525981869548559,-0.8260455131530762,-1.6182419061660767,0.4625653624534607,-0.7468547821044922,-2.1332850456237793,-0.983416736125946,19.229896545410156
2.058379105000313,-0.5652151107788086,0.00857553817331791,0.009986655786633492,-0.8248385190963745,-1.2574928998947144,0.6623428463935852,-0.651821494102478,-1.3412964344024658,-3.1473422050476074,21.189830780029297
2.0615872560001662,-0.5657210350036621,0.009789972566068172,0.01049618050456047,-0.8244717717170715,-1.1060171127319336,0.7219190001487732,-0.616813600063324,-0.8236208558082581,-3.58712100982666,21.991640090942383
2.0652475790002427,-0.5666454434394836,0.012025651521980762,0.010930336080491543,-0.8238014578819275,-0.6763815879821777,0.8353004455566406,-0.5420787334442139,-1.9895964860916138,-8.437104225158691,19.307573318481445
2.068395679000332,-0.5674773454666138,0.013875854201614857,0.010329874232411385,-0.8232072591781616,-0.15872231125831604,0.9818543195724487,-0.48636332154273987,-2.969611883163452,-9.150765419006348,16.629383087158203
2.071359651000421,-0.5678714513778687,0.014684699475765228,0.00965679157525301,-0.8229296207427979,0.09768513590097427,1.0557308197021484,-0.4643009305000305,-2.7006869316101074,-10.097899436950684,13.975057601928711
2.074331758000426,-0.5686182975769043,0.01599878817796707,0.007642494048923254,-0.8224104046821594,0.558605432510376,1.1228429079055786,-0.4276977777481079,-0.4992190897464752,-8.123355865478516,11.261061668395996
2.077979728000173,-0.5693310499191284,0.01689666509628296,0.004986710846424103,-0.8219196200370789,0.9240596294403076,1.1249160766601562,-0.4039713740348816,0.7458469867706299,-5.6823930740356445,7.059037208557129
2.0812768020000476,-0.570035994052887,0.017327262088656425,0.0019200779497623444,-0.821434736251831,1.229661464691162,1.0224225521087646,-0.39946964383125305,1.8711588382720947,-5.18466854095459,2.5906810760498047
2.0840865300001497,-0.570392370223999,0.017312057316303253,0.00026980499387718737,-0.8211898803710938,1.369964361190796,0.9331520795822144,-0.4037333130836487,2.534402847290039,-4.568850040435791,1.4842745065689087
2.0892269150003813,-0.5711241364479065,0.01684650219976902,-0.003063840325921774,-0.820685088634491,1.5168508291244507,0.7051202058792114,-0.42204776406288147,3.2777671813964844,-1.323065161705017,-0.393954873085022
2.0943375660003767,-0.5722777843475342,0.015326387248933315,-0.007547140587121248,-0.8198819160461426,1.4983428716659546,0.31036868691444397,-0.4490818977355957,4.078039646148682,1.2063578367233276,-0.5754268169403076
2.0991782790001707,-0.5730635523796082,0.01393297128379345,-0.009985457174479961,-0.8193316459655762,1.3703727722167969,0.06892136484384537,-0.457150399684906,4.564767360687256,2.1636440753936768,0.9808989763259888
2.105230722000215,-0.5742042064666748,0.011503725312650204,-0.012738097459077835,-0.8185321688652039,1.1915675401687622,-0.24183806777000427,-0.43039318919181824,0.1726830005645752,8.042655944824219,4.696704864501953
2.1073040550004407,-0.5745825171470642,0.010682090185582638,-0.013300812803208828,-0.8182688355445862,0.9400936961174011,-0.35121122002601624,-0.44397708773612976,0.26834166049957275,5.91893196105957,3.288639783859253
2.1093858650001494,-0.5753505825996399,0.009134506806731224,-0.013737854547798634,-0.8177404999732971,0.5119498372077942,-0.563812255859375,-0.4572076201438904,1.1443302631378174,9.083528518676758,5.866063117980957
2.111472803000197,-0.5753505825996399,0.009134506806731224,-0.013737854547798634,-0.8177404999732971,0.5119498372077942,-0.563812255859375,-0.4572076201438904,1.1443302631378174,9.083528518676758,5.866063117980957
2.113557738000054,-0.5757403373718262,0.008448567241430283,-0.013555468991398811,-0.8174765706062317,0.2526983618736267,-0.668799638748169,-0.46283867955207825,1.815592885017395,9.734140396118164,6.688680648803711
2.115643915000419,-0.576526403427124,0.007295740302652121,-0.012372598983347416,-0.8169522881507874,-0.27431029081344604,-0.8606273531913757,-0.4701704978942871,1.0338101387023926,9.284235954284668,8.506857872009277
2.1177319060002446,-0.576526403427124,0.007295740302652121,-0.012372598983347416,-0.8169522881507874,-0.27431029081344604,-0.8606273531913757,-0.4701704978942871,1.0338101387023926,9.284235954284668,8.506857872009277
2.1198251060000075,-0.5769181847572327,0.006827893201261759,-0.011404357850551605,-0.8166937828063965,-0.5152236223220825,-0.9433874487876892,-0.4704137444496155,1.1606143712997437,8.815808296203613,9.156280517578125
2.121910181000203,-0.5776703953742981,0.006068539805710316,-0.008935847319662571,-0.8161986470222473,-0.8365382552146912,-1.0322266817092896,-0.43827489018440247,1.0438826084136963,4.558145523071289,13.20491886138916
2.123999154000103,-0.5776703953742981,0.006068539805710316,-0.008935847319662571,-0.8161986470222473,-0.8365382552146912,-1.0322266817092896,-0.43827489018440247,1.2964012622833252,4.653413772583008,13.236136436462402
2.12611900300044,-0.5783165097236633,0.005496455356478691,-0.0061489976942539215,-0.8157708048820496,-0.9994603991508484,-1.034780740737915,-0.37598916888237,1.776665449142456,1.8348106145858765,16.355701446533203
2.1282157890000235,-0.5783165097236633,0.005496455356478691,-0.0061489976942539215,-0.8157708048820496,-0.9994603991508484,-1.034780740737915,-0.37598916888237,1.776665449142456,1.8348106145858765,16.355701446533203
2.1303122760000406,-0.5788255929946899,0.0050916955806314945,-0.0033402414992451668,-0.815428614616394,-1.0255018472671509,-0.9532694220542908,-0.29049596190452576,1.3451534509658813,-0.700627326965332,18.451454162597656
