timestamp,quat_w,quat_x,quat_y,quat_z,gyro_x,gyro_y,gyro_z,accel_x,accel_y,accel_z
0.0009664090002843295,-0.5720869898796082,0.008033165708184242,-0.0014065648429095745,-0.8201524019241333,-6.154954945714053e-08,6.348697123570446e-10,-1.3401265874790624e-08,-0.14505258202552795,-0.0675334557890892,9.808694839477539
0.0030535930000041844,-0.5720869898796082,0.008033165708184242,-0.0014065648429095745,-0.8201524019241333,-6.154954945714053e-08,6.348697123570446e-10,-1.3401265874790624e-08,-0.14505258202552795,-0.0675334557890892,9.808694839477539
0.005133544000273105,-0.5720869898796082,0.008033165708184242,-0.0014065648429095745,-0.8201524019241333,-6.154895260124249e-08,6.348776504516707e-10,-1.3401127318957151e-08,-0.14505258202552795,-0.0675334632396698,9.808694839477539
0.00721715200052131,-0.5720158815383911,0.008417464792728424,-0.0007522279629483819,-0.8201990127563477,-0.7571452856063843,-0.05942802503705025,0.07917569577693939,-0.9704746007919312,29.468523025512695,25.30501365661621
0.009296942000219133,-0.5720158815383911,0.008417464792728424,-0.0007522279629483819,-0.8201990127563477,-0.7571452856063843,-0.05942802503705025,0.07917569577693939,-0.9704746007919312,29.468523025512695,25.30501365661621
0.011336208000102488,-0.5718744993209839,0.009190109558403492,0.0005499388207681477,-0.8202894330024719,-1.5112593173980713,-0.11179337650537491,0.15616916120052338,-0.7907164096832275,25.40727424621582,25.807039260864258
0.01341705000049842,-0.5714347958564758,0.01164384838193655,0.004723689518868923,-0.8205512762069702,-2.6993889808654785,-0.22047564387321472,0.2564486563205719,-1.4828691482543945,13.463932991027832,20.46030616760254
0.015499895999710134,-0.5711434483528137,0.0131077840924263,0.007372209336608648,-0.8207125067710876,-3.012425422668457,-0.31547650694847107,0.30727240443229675,2.0825438499450684,2.215319871902466,13.98079776763916
0.01758905400038202,-0.5708295702934265,0.014580200426280499,0.010052655823528767,-0.8208775520324707,-3.043738603591919,-0.32696616649627686,0.3275795876979828,2.7054474353790283,7.007279872894287,18.414785385131836
0.01966863400048169,-0.5708295702934265,0.014580200426280499,0.010052655823528767,-0.8208775520324707,-3.043738603591919,-0.32696616649627686,0.3275795876979828,2.7054474353790283,7.007279872894287,18.414785385131836
0.021748134000517894,-0.5702206492424011,0.017938336357474327,0.015859512612223625,-0.8211425542831421,-3.490570545196533,-0.28995147347450256,0.29382869601249695,-2.4179160594940186,5.126705646514893,18.255739212036133
0.02383029999964492,-0.5699203610420227,0.019749140366911888,0.01897282898426056,-0.8212434649467468,-3.5928292274475098,-0.2949241101741791,0.2770145833492279,0.13692089915275574,-3.958055257797241,18.026700973510742
0.025903718000336085,-0.5696093440055847,0.02151908166706562,0.021910808980464935,-0.8213416337966919,-3.425809383392334,-0.22870032489299774,0.2869330942630768,-0.6812533140182495,-4.8781023025512695,18.57045555114746
0.027983648999907018,-0.5692898035049438,0.02323739044368267,0.02467401511967182,-0.8214379549026489,-3.2530710697174072,-0.1717059165239334,0.2955154478549957,-2.1733694076538086,-6.532012939453125,18.76682472229004
0.030063610000070184,-0.568967342376709,0.024871358647942543,0.02723168395459652,-0.8215327262878418,-3.036327362060547,-0.12400760501623154,0.2996889352798462,0.8420807719230652,-9.203691482543945,15.195298194885254
0.033420106999983545,-0.5683562755584717,0.027787713333964348,0.03136545047163963,-0.8217148184776306,-2.3131103515625,0.03201752156019211,0.288301557302475,-0.535409688949585,-10.608861923217773,14.177407264709473
0.03625008299968613,-0.5683562755584717,0.027787713333964348,0.03136545047163963,-0.8217148184776306,-2.3131103515625,0.03201752156019211,0.288301557302475,-0.535409688949585,-10.608861923217773,14.177407264709473
0.039339973000096506,-0.5675548315048218,0.030961304903030396,0.034673552960157394,-0.8220223188400269,-1.0491364002227783,0.30449584126472473,0.281627893447876,-1.7766001224517822,-15.71703052520752,12.052496910095215
0.04191179999997985,-0.5673143267631531,0.03161697834730148,0.03495395556092262,-0.8221514821052551,-0.605595588684082,0.3674984872341156,0.28502699732780457,1.0912067890167236,-12.202216148376465,8.718512535095215
0.04447968899967236,-0.5670790076255798,0.032153546810150146,0.03490249812602997,-0.8222951889038086,-0.2645155191421509,0.45756232738494873,0.295395165681839,-1.3467950820922852,-15.325895309448242,10.033989906311035
0.047045915000126115,-0.5668540596961975,0.032466787844896317,0.03448893502354622,-0.8224554061889648,0.1608019769191742,0.47909510135650635,0.3000715374946594,0.8579127192497253,-7.98507022857666,4.363569736480713
0.04953237199970317,-0.5664073824882507,0.032798804342746735,0.03312871605157852,-0.8228058218955994,0.5578954219818115,0.5099234580993652,0.3155689239501953,0.7192056179046631,-7.458968162536621,0.06558506190776825
0.05290244400021038,-0.5659439563751221,0.032615307718515396,0.03125966340303421,-0.8232049942016602,0.8848682641983032,0.42034146189689636,0.33564651012420654,2.455796718597412,-4.947768688201904,-0.8831648826599121
0.055579896999915945,-0.5656951069831848,0.03239347040653229,0.03016812913119793,-0.8234255313873291,1.0228809118270874,0.4201568067073822,0.35831794142723083,2.377131938934326,-3.644981861114502,-3.22271728515625
0.058131335000325635,-0.5654301643371582,0.03208964690566063,0.02901112660765648,-0.8236609101295471,1.1230958700180054,0.38871729373931885,0.3796348571777344,2.5057334899902344,-3.2269699573516846,-5.515567302703857
0.06066161400030978,-0.5651407837867737,0.031702443957328796,0.02780594862997532,-0.8239160776138306,1.209709882736206,0.3459364175796509,0.41007643938064575,1.8513764142990112,-2.773862361907959,-3.742459774017334
0.06319521899968095,-0.564828097820282,0.03125853091478348,0.02654363587498665,-0.8241890072822571,1.2885918617248535,0.3302915692329407,0.4395378530025482,1.1141765117645264,-0.9068238735198975,-5.567131519317627
0.06576990099983959,-0.5641359686851501,0.03024270571768284,0.02402195893228054,-0.824778139591217,1.3337140083312988,0.2573423385620117,0.4918305575847626,-0.021790483966469765,-0.4871251583099365,-7.4850382804870605
0.06825693900009355,-0.5637509822845459,0.029675418511033058,0.022772207856178284,-0.825097382068634,1.3468207120895386,0.21824148297309875,0.5217939615249634,-0.1707792729139328,-1.5727336406707764,-4.223679065704346
0.0706995549999192,-0.5633399486541748,0.02908271923661232,0.021474959328770638,-0.8254339098930359,1.3999587297439575,0.2229425609111786,0.5538373589515686,-0.9508514404296875,-0.9620683193206787,-3.7456865310668945
0.07324353900003189,-0.5624478459358215,0.027843061834573746,0.01875321939587593,-0.8261510133743286,1.496416449546814,0.2370317280292511,0.6126337647438049,-2.561776638031006,-2.4360744953155518,-4.854957103729248
0.07578542000010202,-0.5619605779647827,0.027171095833182335,0.017292609438300133,-0.8265367746353149,1.5782983303070068,0.2464936375617981,0.6475983262062073,-2.4698832035064697,-2.074695348739624,-2.7189536094665527
0.07833162899987656,-0.5614511966705322,0.02647637017071247,0.01575092040002346,-0.8269361853599548,1.6577386856079102,0.27248984575271606,0.6753355860710144,-4.229462623596191,-4.106339454650879,-2.4725189208984375
0.08178331199997046,-0.5603651404380798,0.0249483622610569,0.012262866832315922,-0.8277790546417236,1.9283106327056885,0.34925323724746704,0.7320814728736877,-3.322479009628296,-3.3993709087371826,0.5505310893058777
0.08444034700005432,-0.5598015189170837,0.024129852652549744,0.01031627506017685,-0.8282110691070557,2.061251163482666,0.3955686092376709,0.7471497058868408,-2.4442834854125977,-2.5439083576202393,2.391066312789917
0.0875057419998484,-0.5586522221565247,0.022449903190135956,0.0060600354336202145,-0.8290759325027466,2.2786874771118164,0.5085372924804688,0.7626915574073792,-1.9440312385559082,-3.019277334213257,5.264376163482666
0.09051934000035544,-0.5580834150314331,0.021582601591944695,0.0037244039122015238,-0.8294957280158997,2.410712957382202,0.5728756189346313,0.7532920837402344,-2.53452467918396,-0.16683857142925262,6.408363342285156
0.09372823200010316,-0.5570036768913269,0.019965730607509613,-0.0010615227511152625,-0.8302693367004395,2.431621789932251,0.6848015189170837,0.6968019604682922,-2.0536179542541504,0.09963904321193695,9.316892623901367
0.09632470399992599,-0.5564980506896973,0.019205136224627495,-0.003486430272459984,-0.8306196331977844,2.426515817642212,0.7127280235290527,0.6641407012939453,-1.8543925285339355,1.813250184059143,10.684646606445312
0.09887384800003929,-0.5560097694396973,0.018507374450564384,-0.00586278410628438,-0.8309490084648132,2.351625919342041,0.738237738609314,0.6369772553443909,-1.7489172220230103,2.0601000785827637,12.019665718078613
0.10149602799992863,-0.5550863742828369,0.01726924628019333,-0.010375604964792728,-0.8315486907958984,2.158884048461914,0.7307442426681519,0.5816605687141418,-1.4854220151901245,2.0202505588531494,13.436726570129395
0.10403807900001993,-0.5546513199806213,0.01672341860830784,-0.012470119632780552,-0.8318213224411011,2.0343334674835205,0.7085606455802917,0.5549166202545166,-0.9938207268714905,3.4812417030334473,15.616068840026855
0.10656130500046856,-0.5542311072349548,0.0162449199706316,-0.014419285580515862,-0.8320793509483337,1.876513123512268,0.6840075254440308,0.531227707862854,-1.517471194267273,5.477913856506348,15.328509330749512
0.10908953000034671,-0.5538185834884644,0.015878483653068542,-0.016180071979761124,-0.832328736782074,1.6579095125198364,0.6728758811950684,0.5153646469116211,-1.537737250328064,6.638883590698242,15.683059692382812
0.11157082800036733,-0.553001880645752,0.015562527813017368,-0.019053218886256218,-0.8328167200088501,1.1414566040039062,0.6669162511825562,0.49637195467948914,-2.4746761322021484,8.466670036315918,15.11776351928711
0.11408390500037058,-0.5525882840156555,0.01564887911081314,-0.020147543400526047,-0.8330638408660889,0.8524746894836426,0.6811137199401855,0.4965156614780426,-2.821949005126953,8.859792709350586,14.774641990661621
0.1165640400004122,-0.5521642565727234,0.015910424292087555,-0.021010760217905045,-0.8333187103271484,0.5628179907798767,0.6994419693946838,0.5023099780082703,-3.0857231616973877,9.271308898925781,14.538413047790527
0.11906808100047783,-0.551725447177887,0.016353551298379898,-0.021643033251166344,-0.8335845470428467,0.2696405053138733,0.7233741879463196,0.513159453868866,-3.455383777618408,9.707060813903809,14.103440284729004
0.12165100699985487,-0.5512672066688538,0.016986140981316566,-0.022044235840439796,-0.8338645100593567,-0.02813335508108139,0.7540110349655151,0.5293200016021729,-3.7284181118011475,10.097671508789062,13.3092622756958
0.12416441500045039,-0.5502830743789673,0.01882571168243885,-0.022156955674290657,-0.8344718217849731,-0.6259688138961792,0.8173271417617798,0.566844642162323,-3.1722729206085205,10.031181335449219,7.7191290855407715
0.12677833999987342,-0.5497496724128723,0.019981667399406433,-0.021857639774680138,-0.8348042964935303,-0.9032829403877258,0.8054631948471069,0.5968272686004639,-2.3779118061065674,9.060616493225098,5.236998558044434
0.1293743109999923,-0.548566997051239,0.022547146305441856,-0.02062617428600788,-0.8355479836463928,-1.322671890258789,0.7158468961715698,0.6800461411476135,0.8480728268623352,4.9751362800598145,1.0072060823440552
0.13205082199965545,-0.5479123592376709,0.02387528494000435,-0.019773652777075768,-0.835961103439331,-1.4641765356063843,0.6462452411651611,0.7269792556762695,-0.35396429896354675,5.792636871337891,-0.9960867762565613
0.13524418500037427,-0.546485424041748,0.026486439630389214,-0.01746860332787037,-0.8368673920631409,-1.7717227935791016,0.4023139774799347,0.8092536926269531,1.47312593460083,3.5333049297332764,-2.9553513526916504
0.1379188829996565,-0.5457220077514648,0.027723373845219612,-0.016057085245847702,-0.8373536467552185,-1.8859355449676514,0.2642335593700409,0.8456475138664246,1.6365818977355957,2.8798694610595703,-4.354166507720947
0.1404756609999822,-0.5449246764183044,0.02888624742627144,-0.014480581507086754,-0.8378621339797974,-1.984967827796936,0.11210746318101883,0.8827611207962036,2.0257067680358887,2.6345624923706055,-4.366031646728516
0.14309190000039962,-0.5432483553886414,0.030952496454119682,-0.010829967446625233,-0.8389313817024231,-2.1696343421936035,-0.2152889370918274,0.9373345375061035,2.5816895961761475,2.28503680229187,-3.6701574325561523
0.14583442399998603,-0.5423809289932251,0.03184574842453003,-0.008760424330830574,-0.8394832015037537,-2.2542879581451416,-0.3825852870941162,0.9537160992622375,0.5585824847221375,-9.277358055114746,-0.2436065822839737
0.14928524599963566,-0.5414696931838989,0.03248148784041405,-0.006836766842752695,-0.8400647640228271,-1.993808388710022,-0.5201994776725769,1.013588309288025,1.4600781202316284,-8.738578796386719,0.46179312467575073
0.1522282530004304,-0.5395636558532715,0.03301966190338135,-0.003352814819663763,-0.8412904143333435,-1.5306888818740845,-0.8075041770935059,1.0906528234481812,-0.17315208911895752,-8.795093536376953,3.180698871612549
0.1543213579998337,-0.5385854244232178,0.03289017081260681,-0.0018469479400664568,-0.8419266939163208,-1.231436848640442,-0.9391846060752869,1.117039442062378,0.022523319348692894,-12.969009399414062,7.020956993103027
0.1564069500000187,-0.5375963449478149,0.03247847035527229,-0.0005549600464291871,-0.8425764441490173,-0.899753987789154,-1.0620107650756836,1.1409122943878174,0.2898275554180145,-13.984309196472168,9.134258270263672
0.15848569799982215,-0.5355914831161499,0.030821017920970917,0.0013330188812687993,-0.8439135551452637,-0.21263085305690765,-1.2790848016738892,1.1842223405838013,2.120556116104126,-14.011125564575195,11.130979537963867
0.1605704980001974,-0.5345780253410339,0.029607947915792465,0.0019408650696277618,-0.8445980548858643,0.10641854256391525,-1.3717349767684937,1.2015385627746582,3.7312204837799072,-15.230646133422852,11.507439613342285
0.16265044900046632,-0.5345780253410339,0.029607947915792465,0.0019408650696277618,-0.8445980548858643,0.10641854256391525,-1.3717349767684937,1.2015385627746582,3.7312204837799072,-15.230646133422852,11.507439613342285
0.1647342269998262,-0.5335587859153748,0.028154682368040085,0.0022841044701635838,-0.8452911376953125,0.4581519663333893,-1.433411717414856,1.2183561325073242,5.2119832038879395,-14.751152038574219,12.084348678588867
0.16681319600047573,-0.5315152406692505,0.02465091273188591,0.002295347396284342,-0.846686840057373,1.0193463563919067,-1.530159831047058,1.231589674949646,4.81221866607666,-12.082673072814941,12.480937957763672
0.16889450899998337,-0.5315152406692505,0.02465091273188591,0.002295347396284342,-0.846686840057373,1.0193463563919067,-1.530159831047058,1.231589674949646,4.81221866607666,-12.082673072814941,12.480937957763672
0.17091059100039274,-0.5305033922195435,0.022673403844237328,0.002031835727393627,-0.8473770618438721,1.2508301734924316,-1.5536084175109863,1.2255492210388184,6.060422420501709,-11.525879859924316,12.799100875854492
0.17299118299979455,-0.5294983386993408,0.020572783425450325,0.001599110197275877,-0.8480599522590637,1.4596693515777588,-1.567982792854309,1.219475507736206,5.593500137329102,-6.469298362731934,16.222196578979492
0.1750719259998732,-0.5285248160362244,0.01846618577837944,0.0010983939282596111,-0.8487162590026855,1.5211001634597778,-1.5364521741867065,1.1800389289855957,5.822239875793457,-6.242298603057861,16.140239715576172
0.17715362000035384,-0.5266721248626709,0.014276682399213314,-6.915652193129063e-05,-0.8499485850334167,1.5969702005386353,-1.4585680961608887,1.0982873439788818,2.787205219268799,3.759711742401123,12.711426734924316
0.17923471300036908,-0.5266721248626709,0.014276682399213314,-6.915652193129063e-05,-0.8499485850334167,1.5969702005386353,-1.4585680961608887,1.0982873439788818,2.787205219268799,3.759711742401123,12.711426734924316
0.18132239799979288,-0.5250161290168762,0.010324058122932911,-0.001021653413772583,-0.8510290384292603,1.43462336063385,-1.3902372121810913,0.9713724851608276,6.394256591796875,-0.4080429971218109,19.95915985107422
0.184325797999918,-0.5242536664009094,0.008482133969664574,-0.0015106603968888521,-0.8515185713768005,1.3748283386230469,-1.3150708675384521,0.9128360152244568,6.654604911804199,0.12336141616106033,20.7630615234375
0.18705835299988394,-0.5228725671768188,0.005153865087777376,-0.0024526985362172127,-0.85239177942276,1.2230421304702759,-1.1133044958114624,0.7944067120552063,7.82985782623291,1.9938113689422607,20.934322357177734
0.1896892390004723,-0.522253692150116,0.003711242228746414,-0.0029073285404592752,-0.8527771234512329,1.137696385383606,-0.9924351572990417,0.734926700592041,7.743228912353516,2.949458122253418,19.535114288330078
0.19238991499969416,-0.5216875076293945,0.002411596942692995,-0.0033410736359655857,-0.8531267046928406,1.0455152988433838,-0.8814343810081482,0.6707862615585327,7.435819149017334,4.032182216644287,17.035175323486328
0.1950732790000984,-0.5211805701255798,0.001237738411873579,-0.0037450287491083145,-0.8534373044967651,0.954752504825592,-0.7897674441337585,0.5993784070014954,5.179743766784668,3.035810947418213,18.10197639465332
0.1976919730004738,-0.5207337737083435,0.00015010664355941117,-0.0041355593129992485,-0.8537091016769409,0.8985751271247864,-0.7233520150184631,0.5275126695632935,4.829763412475586,4.674241065979004,15.064729690551758
0.2002022639999268,-0.520036518573761,-0.00182583078276366,-0.004812132567167282,-0.8541284799575806,0.7817994952201843,-0.6553594470024109,0.37111204862594604,3.4409754276275635,5.558983325958252,13.262333869934082
0.20271153399971809,-0.5195934176445007,-0.003590721171349287,-0.005284952465444803,-0.8543897271156311,0.6934861540794373,-0.6342598795890808,0.29925537109375,3.3313233852386475,5.280517578125,11.518064498901367
0.20523255599982804,-0.5195934176445007,-0.003590721171349287,-0.005284952465444803,-0.8543897271156311,0.6276775598526001,-0.6247243285179138,0.222739115357399,2.7939794063568115,5.196288108825684,9.449779510498047
0.20774267700016935,-0.5194284319877625,-0.005264717619866133,-0.005594166927039623,-0.8544794321060181,0.5362941026687622,-0.6449896693229675,0.05678228661417961,2.257728338241577,5.463613510131836,8.000053405761719
0.21024485399993864,-0.5194416046142578,-0.006068678572773933,-0.005665562581270933,-0.8544656038284302,0.4786141514778137,-0.6500299572944641,-0.01437288522720337,3.3246383666992188,6.78914213180542,6.067748069763184
0.21276387200032332,-0.5195111036300659,-0.0068128942511975765,-0.005666728597134352,-0.8544177412986755,0.3874225616455078,-0.6359851360321045,-0.08000720292329788,2.999065637588501,7.096619129180908,4.548177242279053
0.21528868099994725,-0.5198120474815369,-0.008122989907860756,-0.005414895713329315,-0.8542248606681824,0.17585690319538116,-0.6233048439025879,-0.20390808582305908,0.7269906997680664,6.7808637619018555,2.866403102874756
0.21777791299973615,-0.5200350284576416,-0.008712067268788815,-0.00515720946714282,-0.8540849089622498,0.0850340947508812,-0.6394978165626526,-0.2579578757286072,0.5942317247390747,6.964513778686523,4.608335018157959
0.22032003399999667,-0.5202898979187012,-0.00923301000148058,-0.0048175714910030365,-0.8539262413978577,-0.02057311125099659,-0.6242495775222778,-0.2945463955402374,-0.3729473054409027,7.996462345123291,2.335578680038452
0.22281184199982818,-0.5205819606781006,-0.00968453474342823,-0.004368975758552551,-0.8537455797195435,-0.14997027814388275,-0.6220433115959167,-0.3370732069015503,-0.7515625953674316,7.618440628051758,4.222235679626465
0.2254227000003084,-0.5212462544441223,-0.010327554307878017,-0.0031541474163532257,-0.8533380031585693,-0.42933189868927,-0.5829282402992249,-0.3961676061153412,-2.327019691467285,8.893046379089355,5.6449408531188965
0.22816072600016923,-0.5216140151023865,-0.010482031852006912,-0.002353025833144784,-0.8531139492988586,-0.6061984300613403,-0.5528772473335266,-0.4218679666519165,-3.058350086212158,9.499537467956543,6.855738639831543
0.2306665799997063,-0.5220035314559937,-0.01049854513257742,-0.0014070210745558143,-0.8528775572776794,-0.8019630312919617,-0.510931670665741,-0.44565337896347046,-2.4162509441375732,8.415199279785156,8.695991516113281
0.2332787510003982,-0.5224067568778992,-0.010381890460848808,-0.00034104264341294765,-0.8526331186294556,-0.9739327430725098,-0.46008583903312683,-0.46045392751693726,-2.803954839706421,8.850841522216797,9.945441246032715
0.23643418299980112,-0.5232433676719666,-0.00965637806802988,0.002218428533524275,-0.8521257042884827,-1.4055129289627075,-0.32220810651779175,-0.4797748327255249,-2.684762954711914,8.520888328552246,12.188919067382812
0.23911115500050073,-0.52407306432724,-0.008290155790746212,0.005317972041666508,-0.851616382598877,-1.7666279077529907,-0.19544808566570282,-0.4670381247997284,-1.2164058685302734,7.125319957733154,15.001319885253906
0.24165525999978854,-0.52407306432724,-0.008290155790746212,0.005317972041666508,-0.851616382598877,-1.7666279077529907,-0.19544808566570282,-0.4670381247997284,-1.2164058685302734,7.125319957733154,15.001319885253906
0.24422349900032714,-0.5244733691215515,-0.007390959654003382,0.007012087851762772,-0.8513659238815308,-1.9186331033706665,-0.12201744318008423,-0.45333829522132874,-0.7889837026596069,6.523822784423828,17.09459114074707
0.24685230199975194,-0.5255428552627563,-0.003922744654119015,0.01253433246165514,-0.8506657481193542,-2.2731590270996094,0.08369313925504684,-0.38223403692245483,0.2091912478208542,4.078640937805176,20.235193252563477
0.24942235500020615,-0.525861382484436,-0.0025859272573143244,0.014435924589633942,-0.8504438400268555,-2.3242075443267822,0.14093893766403198,-0.3633960783481598,0.2091912478208542,4.078640937805176,20.235193252563477
0.2519155449999744,-0.5261617302894592,-0.0011920834658667445,0.016337992623448372,-0.8502267003059387,-2.3544836044311523,0.18893630802631378,-0.34456220269203186,0.7550383806228638,2.623805522918701,22.195642471313477
0.2545664179997402,-0.5264437794685364,0.00023976444208528847,0.018221713602542877,-0.8500146269798279,-2.3587775230407715,0.2306092530488968,-0.3257870376110077,0.4539757966995239,0.30703210830688477,21.75889015197754
0.2571296980004263,-0.5267103910446167,0.0016823351616039872,0.02002553828060627,-0.8498072028160095,-2.2964274883270264,0.2815008759498596,-0.3099171817302704,0.4680400490760803,-1.0104010105133057,21.991174697875977
0.2597251890001644,-0.527184784412384,0.004440531600266695,0.023205209523439407,-0.8494221568107605,-1.9613721370697021,0.3482884168624878,-0.2615855038166046,-0.5658292770385742,-7.691980838775635,17.86731719970703
0.26232118000007176,-0.5273842811584473,0.005651198327541351,0.024446016177535057,-0.8492563366889954,-1.6951775550842285,0.3795987069606781,-0.23430727422237396,-0.7416161298751831,-4.3930439949035645,20.543272018432617
0.2651300369998353,-0.5275806784629822,0.006827191915363073,0.025515593588352203,-0.8490942120552063,-1.531398892402649,0.44036033749580383,-0.22962014377117157,0.39929118752479553,-5.102949142456055,18.169633865356445
0.2676841410002453,-0.527958869934082,0.009053809568285942,0.027137145400047302,-0.8487879633903503,-1.1659812927246094,0.5393192172050476,-0.2085268348455429,0.14857937395572662,-7.2306976318359375,14.467958450317383
0.2704192510000212,-0.5281246304512024,0.01005069725215435,0.027668774127960205,-0.8486564755439758,-0.9796238541603088,0.5711565613746643,-0.18784190714359283,0.8211272954940796,-6.437994003295898,13.219667434692383
0.2732241009998688,-0.5284287333488464,0.011809730902314186,0.028333259746432304,-0.8484225273132324,-0.6784921884536743,0.5705584287643433,-0.16583852469921112,2.1417126655578613,-4.536125183105469,11.001275062561035
0.2759447939997699,-0.5285760164260864,0.012555739842355251,0.028529062867164612,-0.848313570022583,-0.5616859793663025,0.5349226593971252,-0.16369865834712982,2.2123348712921143,-6.883202075958252,6.04656982421875
0.27865903499969136,-0.5288551449775696,0.013507026247680187,0.02857038751244545,-0.8481235504150391,-0.1771097332239151,0.346128910779953,-0.15196974575519562,3.0727107524871826,-5.611172676086426,3.6768524646759033
0.28192709700033447,-0.528991162776947,0.013687938451766968,0.028459681198000908,-0.8480395078659058,-0.002346814377233386,0.21700423955917358,-0.1531241089105606,3.750075340270996,-0.7540403604507446,4.677456855773926
0.2846104310001465,-0.5291404724121094,0.013747183606028557,0.02839352935552597,-0.8479475975036621,0.024186667054891586,0.0907442644238472,-0.17268411815166473,3.776846170425415,-1.3305641412734985,2.9657883644104004
0.2872015829998418,-0.5294758677482605,0.013429277576506138,0.02840915322303772,-0.8477427959442139,0.0822024717926979,-0.2080724686384201,-0.21120873093605042,4.883660316467285,1.226871371269226,2.7632696628570557
0.2899273060002088,-0.5294758677482605,0.013429277576506138,0.02840915322303772,-0.8477427959442139,0.0822024717926979,-0.2080724686384201,-0.21120873093605042,4.883660316467285,1.226871371269226,2.7632696628570557
0.29257008399963524,-0.5298581719398499,0.01266081165522337,0.02880825847387314,-0.8475022315979004,0.007763571571558714,-0.4941740930080414,-0.2481006532907486,7.026805400848389,5.312961578369141,2.5788848400115967
0.29527616999985185,-0.5302800536155701,0.01171028334647417,0.02980770356953144,-0.8472175002098083,-0.21135753393173218,-0.72542405128479,-0.2817564606666565,6.159566402435303,4.411983013153076,3.862165927886963
0.29794477700033895,-0.5304948687553406,0.011162436567246914,0.030519653111696243,-0.8470650315284729,-0.31469228863716125,-0.8334885835647583,-0.2875341773033142,5.070489883422852,0.5424401760101318,0.7792171239852905
0.30061864300023444,-0.5306985378265381,0.010498111136257648,0.03129546344280243,-0.8469176292419434,-0.30696484446525574,-0.966430127620697,-0.2796204090118408,5.209158897399902,0.4874180257320404,1.5259370803833008
0.30270903299970087,-0.5310326218605042,0.008914321660995483,0.032911233603954315,-0.84666508436203,-0.2349817156791687,-1.0881836414337158,-0.21481209993362427,5.163798809051514,-2.607783079147339,10.97563648223877
0.30478942500030826,-0.5310326218605042,0.008914321660995483,0.032911233603954315,-0.84666508436203,-0.2349817156791687,-1.0881836414337158,-0.21481209993362427,4.538026809692383,-3.2326929569244385,8.243541717529297
0.30686930600040796,-0.5311368107795715,0.008053470402956009,0.03363633528351784,-0.8465798497200012,-0.15865403413772583,-1.1097162961959839,-0.16827139258384705,5.728172302246094,-3.973219156265259,10.96513557434082
0.3089385769999353,-0.5311986804008484,0.0071618398651480675,0.03428247198462486,-0.846523106098175,-0.07483868300914764,-1.0954837799072266,-0.1177460104227066,5.935298919677734,-5.009591579437256,13.475947380065918
0.31100568400052,-0.5311858057975769,0.005388742312788963,0.03524069860577583,-0.8465049862861633,0.10840896517038345,-0.9670616984367371,-0.005083219148218632,6.824954032897949,-5.4648895263671875,17.12616729736328
0.31308693699975265,-0.5311858057975769,0.005388742312788963,0.03524069860577583,-0.8465049862861633,0.10840896517038345,-0.9670616984367371,-0.005083219148218632,6.824954032897949,-5.4648895263671875,17.12616729736328
0.3151691720004237,-0.5311107039451599,0.004552945494651794,0.03553823009133339,-0.8465445637702942,0.193091481924057,-0.8684109449386597,0.05354281887412071,6.976515769958496,-5.229129791259766,18.45740509033203
0.3172432419996767,-0.5308288335800171,0.0030839703977108,0.03580449894070625,-0.8467167615890503,0.30341625213623047,-0.6384926438331604,0.16594980657100677,7.1052069664001465,-4.982101917266846,19.40235137939453
0.31931673100007174,-0.5308288335800171,0.0030839703977108,0.03580449894070625,-0.8467167615890503,0.30341625213623047,-0.6384926438331604,0.16594980657100677,7.222759246826172,-4.776854515075684,20.050846099853516
0.3214076619997286,-0.530380368232727,0.0020296915899962187,0.03572462871670723,-0.8470042943954468,0.2980310916900635,-0.3519975244998932,0.27624231576919556,7.056149959564209,-4.825991153717041,20.94144058227539
0.3234881739999764,-0.530380368232727,0.0020296915899962187,0.03572462871670723,-0.8470042943954468,0.2980310916900635,-0.3519975244998932,0.27624231576919556,7.056149959564209,-4.825991153717041,20.94144058227539
0.3255560220004554,-0.5297885537147522,0.001424219342879951,0.035378988832235336,-0.847390353679657,0.3020023703575134,-0.11579757183790207,0.36436575651168823,6.861043453216553,-3.2591867446899414,20.30990219116211
0.32762433199968655,-0.5297885537147522,0.001424219342879951,0.035378988832235336,-0.847390353679657,0.3020023703575134,-0.11579757183790207,0.36436575651168823,6.861043453216553,-3.2591867446899414,20.30990219116211
0.3296946250002293,-0.529072105884552,0.001254363334737718,0.034886427223682404,-0.8478585481643677,0.24568422138690948,0.09485866129398346,0.44390496611595154,6.501814365386963,-2.863396644592285,20.16828727722168
0.3317615810001371,-0.5286743640899658,0.0013098441995680332,0.03461272269487381,-0.8481177091598511,0.21125428378582,0.1776486188173294,0.4766601026058197,6.358074188232422,-2.8275201320648193,20.04173469543457
0.3355187429997386,-0.5282542109489441,0.001441960223019123,0.03432992473244667,-0.8483907580375671,0.178898423910141,0.24665924906730652,0.5055691003799438,5.7038774490356445,-3.07369327545166,19.819740295410156
0.33845882500008884,-0.5273491740226746,0.001893131178803742,0.03374926745891571,-0.8489759564399719,0.12245399504899979,0.3522999882698059,0.5594460368156433,5.144068717956543,-3.1877546310424805,19.159196853637695
0.34163282200006506,-0.5263551473617554,0.002599726663902402,0.03321560099720955,-0.8496118187904358,0.0028195371851325035,0.4560530185699463,0.619513750076294,4.936885833740234,-4.645432949066162,15.364405632019043
0.3446928769999431,-0.525814950466156,0.00299990177154541,0.03297216072678566,-0.8499544262886047,0.006170905195176601,0.44929736852645874,0.6531749367713928,4.828442573547363,-3.944840431213379,14.14981746673584
0.3484123890002593,-0.5246269702911377,0.0038092732429504395,0.032501984387636185,-0.8507030010223389,-0.0003282683319412172,0.4398020803928375,0.7391932606697083,5.3640851974487305,-6.012917995452881,8.557674407958984
0.3509762100002263,-0.5239689350128174,0.004141799174249172,0.03221973404288292,-0.8511176705360413,0.07662850618362427,0.40798988938331604,0.7892020344734192,4.715150356292725,-6.04633092880249,8.790579795837402
0.35351724900010595,-0.5225393176078796,0.0046068946830928326,0.03149988874793053,-0.8520206212997437,0.22966068983078003,0.34440547227859497,0.8754886388778687,5.305364608764648,-5.934025764465332,2.3642334938049316
0.35612176599988743,-0.521763801574707,0.004709669388830662,0.031077945604920387,-0.8525106906890869,0.31766536831855774,0.2813616394996643,0.9220302700996399,4.268072605133057,-5.664235591888428,2.776850938796997
0.3586125419997188,-0.5209571719169617,0.004722053650766611,0.03059943951666355,-0.8530211448669434,0.4135340750217438,0.23275233805179596,0.956629753112793,4.2024054527282715,-5.965274333953857,1.270302176475525
0.36124999999992724,-0.5192593932151794,0.004456371068954468,0.029422812163829803,-0.8540984392166138,0.6403966546058655,0.14070315659046173,1.0181268453598022,3.129751443862915,-5.890039920806885,-1.7432862520217896
0.36394547700001567,-0.5183737277984619,0.004172632936388254,0.02872052788734436,-0.8546615839004517,0.7597759962081909,0.09375810623168945,1.0436737537384033,2.1730289459228516,-5.5458760261535645,-0.10079744458198547
0.3665274519999002,-0.516573429107666,0.0033466636668890715,0.02704799175262451,-0.8558090329170227,0.9987658262252808,0.03132832050323486,1.0635730028152466,0.29834887385368347,-5.327302932739258,-1.6858574151992798
0.3690717970002879,-0.5156694054603577,0.002809329889714718,0.026079583913087845,-0.8563860058784485,1.118927001953125,0.014016998931765556,1.0604078769683838,-0.6232590675354004,-5.443178176879883,-1.6190383434295654
0.37163815300027636,-0.5156694054603577,0.002809329889714718,0.026079583913087845,-0.8563860058784485,1.118927001953125,0.014016998931765556,1.0604078769683838,-0.6232590675354004,-5.443178176879883,-1.6190383434295654
0.3744305899999745,-0.5138787627220154,0.0015051292721182108,0.02381853573024273,-0.8575307726860046,1.3892664909362793,-0.003589698811993003,1.0431567430496216,-2.0512239933013916,-5.136472702026367,0.8205351829528809
0.37714457099991705,-0.5130045413970947,0.0007573710172437131,0.022512882947921753,-0.8580902814865112,1.515906572341919,0.008056367747485638,1.0213665962219238,-2.865907669067383,-5.419355392456055,1.5563251972198486
0.37979299899961916,-0.5121492147445679,-4.234187872498296e-05,0.02108187787234783,-0.8586377501487732,1.6498656272888184,0.028215155005455017,0.9978914856910706,-3.7755773067474365,-5.9782538414001465,2.509355306625366
0.38249819399970875,-0.5104930400848389,-0.0017989447806030512,0.017763841897249222,-0.8596965074539185,1.9736473560333252,0.09753181040287018,0.9516596794128418,-3.5022850036621094,-6.715569019317627,5.823424816131592
0.38523337399965385,-0.50968998670578,-0.002757627284154296,0.015830911695957184,-0.8602080345153809,2.161668539047241,0.14922715723514557,0.9310165643692017,-3.8508920669555664,-5.2386064529418945,6.7557268142700195
0.38792489299976296,-0.5081888437271118,-0.004769295919686556,0.011521367356181145,-0.8611553907394409,2.453782320022583,0.24912168085575104,0.8408594131469727,-2.7916224002838135,-4.197292327880859,9.595266342163086
0.39056901399999333,-0.5074945092201233,-0.005799934267997742,0.009165081195533276,-0.8615867495536804,2.561171531677246,0.303956001996994,0.7940349578857422,-2.753289222717285,-0.0889056921005249,8.19772720336914
0.393242559999635,-0.5062882900238037,-0.00779104046523571,0.004407875239849091,-0.8623178601264954,2.556305408477783,0.36231735348701477,0.642364501953125,-1.9326748847961426,-3.702864646911621,14.783364295959473
0.3958582570003273,-0.505760908126831,-0.008768877014517784,0.0019313155207782984,-0.8626269698143005,2.6361234188079834,0.41073179244995117,0.5876806974411011,-1.9448480606079102,-0.4025503695011139,14.205415725708008
0.398443959999895,-0.5048328638076782,-0.01062027644366026,-0.0030401081312447786,-0.8631464242935181,2.6234474182128906,0.4689410328865051,0.4811055362224579,-1.1034654378890991,-0.4608360230922699,17.28190803527832
0.4010800850001033,-0.5044279098510742,-0.011493264697492123,-0.005516042001545429,-0.8633596897125244,2.5814621448516846,0.499912828207016,0.433553546667099,-0.6966545581817627,0.0651502013206482,18.656131744384766
0.40382488399973226,-0.5044279098510742,-0.011493264697492123,-0.005516042001545429,-0.8633596897125244,2.5814621448516846,0.499912828207016,0.433553546667099,-0.6966545581817627,0.0651502013206482,18.656131744384766
0.40647893300047144,-0.5034354329109192,-0.013649475760757923,-0.012499838136136532,-0.86383455991745,2.248002529144287,0.5854455232620239,0.3019079566001892,-0.9850675463676453,3.858643054962158,19.58812141418457
0.4091248370004905,-0.5031662583351135,-0.014138998463749886,-0.014608417637646198,-0.8639504313468933,2.070134162902832,0.6436136960983276,0.268189400434494,-0.9850675463676453,3.858643054962158,19.58812141418457
0.4117143359999318,-0.5031662583351135,-0.014138998463749886,-0.014608417637646198,-0.8639504313468933,2.070134162902832,0.6436136960983276,0.268189400434494,-1.4181265830993652,7.479577541351318,16.888782501220703
0.4149566300002334,-0.5025272369384766,-0.014524090103805065,-0.01981363259255886,-0.8642122745513916,1.3006963729858398,0.8372449278831482,0.1806071400642395,-2.5154175758361816,9.020051002502441,15.56013011932373
0.4176727149997532,-0.5025272369384766,-0.014524090103805065,-0.01981363259255886,-0.8642122745513916,1.3006963729858398,0.8372449278831482,0.1806071400642395,-2.772667169570923,9.364870071411133,15.359317779541016
0.4202256660000785,-0.5021909475326538,-0.013738683424890041,-0.02223135717213154,-0.8643617630004883,0.693241536617279,0.9893925189971924,0.15138109028339386,-2.993966579437256,11.15652847290039,11.692534446716309
0.42284131399992475,-0.5020414590835571,-0.013014941476285458,-0.023072266951203346,-0.8644377589225769,0.36375847458839417,1.0522398948669434,0.13974177837371826,-2.4354758262634277,10.851212501525879,9.789341926574707
0.4253867010002068,-0.5017491579055786,-0.011072812601923943,-0.024050170555710793,-0.8646078705787659,-0.1747773140668869,1.0940278768539429,0.14500851929187775,-1.1302703619003296,8.80775260925293,5.656330108642578
0.4278898590000608,-0.5015902519226074,-0.009937935508787632,-0.024200117215514183,-0.8647096753120422,-0.44046783447265625,1.0614084005355835,0.15950630605220795,-0.5089340806007385,7.105544090270996,2.8188300132751465
0.43041259399979026,-0.5014120936393738,-0.008747045882046223,-0.02412922866642475,-0.8648278117179871,-0.6597251296043396,0.9997020363807678,0.18518804013729095,0.5853958129882812,6.17385721206665,2.43936824798584
0.43295890300032625,-0.500988781452179,-0.006327916868031025,-0.02337041310966015,-0.8651150465011597,-1.0172008275985718,0.8090145587921143,0.24580542743206024,2.5235719680786133,2.488814115524292,-1.4154561758041382
0.435483602000204,-0.500732958316803,-0.005170039366930723,-0.022764988243579865,-0.8652869462966919,-1.1062452793121338,0.7054532766342163,0.28423407673835754,2.5235719680786133,2.488814115524292,-1.4154561758041382
0.4380521020002561,-0.500732958316803,-0.005170039366930723,-0.022764988243579865,-0.8652869462966919,-1.1062452793121338,0.7054532766342163,0.28423407673835754,1.8885787725448608,3.5924439430236816,-1.832590103149414
0.4405089339998085,-0.5001472234725952,-0.00304579664953053,-0.021032363176345825,-0.8656795620918274,-1.3329098224639893,0.42246198654174805,0.34633690118789673,3.128241777420044,-0.46446773409843445,-2.842219591140747
0.44325301099979697,-0.4998164176940918,-0.0021402770653367043,-0.020024921745061874,-0.8658972382545471,-1.3285844326019287,0.2876421809196472,0.379272997379303,3.319762706756592,-0.5413830280303955,-3.0314509868621826
0.44695590199989965,-0.4987025856971741,-0.0001492107257945463,-0.016582760959863663,-0.8666145205497742,-1.301352620124817,-0.12186870723962784,0.4505388140678406,4.272478103637695,-2.2264769077301025,-1.303275227546692
0.4506434349996198,-0.4978904128074646,0.0005626686615869403,-0.014065251685678959,-0.8671256899833679,-1.2306305170059204,-0.36710187792778015,0.481131374835968,3.9421255588531494,-2.4732816219329834,-1.396174430847168
0.45279923700036306,-0.4978904128074646,0.0005626686615869403,-0.014065251685678959,-0.8671256899833679,-1.2306305170059204,-0.36710187792778015,0.481131374835968,3.9421255588531494,-2.4732816219329834,-1.396174430847168
0.4549304130005112,-0.49746793508529663,0.0007223031134344637,-0.012825438752770424,-0.8673872351646423,-1.1584703922271729,-0.47307249903678894,0.49362632632255554,5.342199802398682,-4.6526408195495605,-1.0278735160827637
0.45707157800006826,-0.49703994393348694,0.0007575759082101285,-0.011667894199490547,-0.8676488995552063,-1.0252519845962524,-0.5399463772773743,0.5001016855239868,4.74159574508667,-3.6284186840057373,0.8359849452972412
0.459278154000458,-0.4966041147708893,0.0006746086291968822,-0.010561376810073853,-0.8679126501083374,-0.9222381711006165,-0.6170846223831177,0.5093665719032288,5.386087417602539,-4.493025302886963,1.0191529989242554
0.46157230399967375,-0.4957182705402374,0.00019598717335611582,-0.00859481655061245,-0.8684408664703369,-0.6738981604576111,-0.7125688195228577,0.5200325846672058,5.371820449829102,-4.648415565490723,2.354257106781006
0.4637663169996813,-0.4952692985534668,-0.0001807187800295651,-0.007750947028398514,-0.8687049150466919,-0.5484684705734253,-0.7416616082191467,0.5238638520240784,5.371820449829102,-4.648415565490723,2.354257106781006
0.4658493130000352,-0.49483722448349,-0.0005832497263327241,-0.0069875214248895645,-0.8689574003219604,-0.4657096564769745,-0.724387526512146,0.5036503672599792,4.061927795410156,-2.8558273315429688,7.7989654541015625
0.46791649100032373,-0.4944210350513458,-0.0010106480913236737,-0.006308000069111586,-0.8691990971565247,-0.38042858242988586,-0.7045943737030029,0.48464420437812805,5.026461124420166,-2.531280755996704,9.803281784057617
0.4700010699998529,-0.4940243065357208,-0.0014479755191132426,-0.005716449581086636,-0.8694280982017517,-0.29899489879608154,-0.6698657274246216,0.46141576766967773,3.948101043701172,-2.1009862422943115,12.227790832519531
0.4720806699997411,-0.4936535954475403,-0.0018831408815458417,-0.00521675031632185,-0.8696409463882446,-0.2201501727104187,-0.6227812170982361,0.4306601285934448,3.757617950439453,-1.767645001411438,13.981900215148926
0.4741605509998408,-0.49331238865852356,-0.002306362148374319,-0.004811874125152826,-0.8698358535766602,-0.14354650676250458,-0.5657721757888794,0.39593273401260376,3.7158682346343994,-1.3912131786346436,15.300683975219727
0.47622904000036215,-0.4930029809474945,-0.0027069486677646637,-0.0044992584735155106,-0.8700118064880371,-0.0744430348277092,-0.5007670521736145,0.3585776090621948,3.732530355453491,-1.044814944267273,16.325342178344727
0.4783184990001246,-0.49272677302360535,-0.003076152876019478,-0.004274635575711727,-0.870168149471283,-0.013361639343202114,-0.430285781621933,0.3196485936641693,4.624182224273682,-0.9668930768966675,16.987197875976562
0.48040762700020423,-0.492482453584671,-0.0034092215355485678,-0.004136204719543457,-0.8703058958053589,0.04381644353270531,-0.3565663695335388,0.28232744336128235,3.8668015003204346,-0.48439639806747437,17.72673988342285
0.48324392500035174,-0.4920963644981384,-0.003948782104998827,-0.0040894472040236,-0.870522141456604,0.13396401703357697,-0.20835348963737488,0.20244932174682617,3.9471704959869385,-0.04699103534221649,18.536231994628906
0.4859028139999282,-0.4919542074203491,-0.004153520800173283,-0.004171213135123253,-0.8706011772155762,0.17216868698596954,-0.13709989190101624,0.16314545273780823,3.2112174034118652,0.5237478613853455,18.670127868652344
0.48849522799991973,-0.4918484091758728,-0.004315753001719713,-0.004309595562517643,-0.8706594705581665,0.20048291981220245,-0.07247767597436905,0.12090325355529785,3.227433681488037,0.7856156229972839,18.689350128173828
0.4910679760005223,-0.491747111082077,-0.004519289825111628,-0.004708471242338419,-0.8707135915756226,0.2240997552871704,0.032786376774311066,0.034639980643987656,2.9738991260528564,2.473762273788452,14.223708152770996
0.49367810399962764,-0.4917648732662201,-0.00457763671875,-0.004924728535115719,-0.8707020878791809,0.21696414053440094,0.05540434643626213,-0.021842345595359802,2.763871192932129,3.481419086456299,11.114465713500977
0.4962754580001274,-0.49184277653694153,-0.0046274554915726185,-0.005121639464050531,-0.8706566691398621,0.19581669569015503,0.05286506190896034,-0.09080573916435242,3.016634225845337,3.7481260299682617,9.055852890014648
0.4990743959997417,-0.49218928813934326,-0.004721147008240223,-0.005424346309155226,-0.8704584836959839,0.140083909034729,0.027080683037638664,-0.2354402095079422,2.6571033000946045,3.48579740524292,8.154555320739746
0.5019537449998097,-0.49245432019233704,-0.004767164587974548,-0.005536153446882963,-0.8703076243400574,0.11953971534967422,0.01282330509275198,-0.3052547872066498,1.94071364402771,3.6521122455596924,9.151485443115234
0.5047383669998453,-0.4931538999080658,-0.0048325625248253345,-0.0056170388124883175,-0.8699105381965637,0.026969075202941895,-0.030427010729908943,-0.4382869601249695,1.9745159149169922,4.009995460510254,4.974586009979248
0.5076126470003146,-0.4935920238494873,-0.004868527874350548,-0.005568815860897303,-0.8696621060371399,-0.024935318157076836,-0.058729346841573715,-0.5031789541244507,1.8278478384017944,4.262394905090332,3.4239602088928223
0.5104407700000593,-0.49408549070358276,-0.004906441085040569,-0.005450582131743431,-0.869382381439209,-0.08495433628559113,-0.09544042497873306,-0.566451907157898,1.5892014503479004,4.543177127838135,1.8171706199645996
0.5131120510004621,-0.49522435665130615,-0.004979818128049374,-0.004976824391633272,-0.8687365651130676,-0.2247389703989029,-0.16705426573753357,-0.6779544353485107,0.8034529685974121,4.289469242095947,3.718872547149658
0.5157555010000578,-0.49585622549057007,-0.004996321629732847,-0.004618477541953325,-0.8683779835700989,-0.30449798703193665,-0.19673004746437073,-0.7246508598327637,-0.01217626128345728,5.010880947113037,1.5782594680786133
0.5184567380001681,-0.4965282678604126,-0.0049965763464570045,-0.004165964666754007,-0.8679961562156677,-0.3944203555583954,-0.229613795876503,-0.770647406578064,-0.6454942226409912,4.64896297454834,3.6917452812194824
0.5213207879996844,-0.49795934557914734,-0.004891891963779926,-0.0029940425883978605,-0.8671814203262329,-0.5895231366157532,-0.2571498453617096,-0.83636075258255,-1.9455958604812622,5.665865421295166,2.900076150894165
0.5245381360000465,-0.49871498346328735,-0.004767382517457008,-0.002248745411634445,-0.8667500019073486,-0.7107133865356445,-0.26752856373786926,-0.8668348789215088,-2.1800601482391357,5.096340656280518,5.0334577560424805
0.527244021000115,-0.5002791881561279,-0.004324285313487053,-0.0004759541479870677,-0.8658532500267029,-0.9407301545143127,-0.24648050963878632,-0.907893717288971,-3.7051236629486084,6.518909454345703,5.755990505218506
0.5299581620001845,-0.5010871887207031,-0.003973760642111301,0.0005737303290516138,-0.865387499332428,-1.0875056982040405,-0.22403115034103394,-0.9282633662223816,-3.4301180839538574,5.634605884552002,7.7094502449035645
0.5326323489998686,-0.5027292370796204,-0.0029623506125062704,0.003010493703186512,-0.8644335865974426,-1.4078618288040161,-0.15645147860050201,-0.9480844140052795,-4.3066911697387695,6.802987575531006,9.335287094116211
0.5353267840000626,-0.5027292370796204,-0.0029623506125062704,0.003010493703186512,-0.8644335865974426,-1.4078618288040161,-0.15645147860050201,-0.9480844140052795,-4.3066911697387695,6.802987575531006,9.335287094116211
0.5380330200005119,-0.503554105758667,-0.0022757495753467083,0.004424988757818937,-0.8639493584632874,-1.571813702583313,-0.11653843522071838,-0.9502149820327759,-3.843205690383911,6.261515140533447,10.789207458496094
0.5406954549998773,-0.50516277551651,-0.0005569100030697882,0.007576200179755688,-0.8629906177520752,-1.8700512647628784,-0.02392284758388996,-0.9174817800521851,-2.6768317222595215,4.240403652191162,14.050690650939941
0.543437508000352,-0.5059377551078796,0.0004478905175346881,0.009252515621483326,-0.8625202178955078,-1.9582291841506958,0.0259306151419878,-0.8978719711303711,-2.704798698425293,-0.37456291913986206,12.172307968139648
0.5460948729996744,-0.5073701739311218,0.0025457467418164015,0.012577541172504425,-0.8616326451301575,-2.0034639835357666,0.1008916050195694,-0.8181785345077515,-1.710728406906128,0.8145126700401306,17.42719268798828
0.5487640110004577,-0.5080441832542419,0.003667553188279271,0.014208316802978516,-0.8612059950828552,-1.977952003479004,0.1487421840429306,-0.7872612476348877,-1.364056944847107,0.6583570241928101,18.42454719543457
0.5515846500002226,-0.5093039870262146,0.0059518832713365555,0.017317283898591995,-0.8603918552398682,-1.9047833681106567,0.2207779884338379,-0.7220606207847595,-0.609109103679657,0.6607695817947388,20.712099075317383
0.5543623000003208,-0.509888231754303,0.007104705553501844,0.018795397132635117,-0.8600059747695923,-1.8620988130569458,0.25148528814315796,-0.6880366802215576,-0.9721713066101074,-1.4307249784469604,20.644962310791016
0.5571060359998228,-0.5109783411026001,0.009350355714559555,0.02139532007277012,-0.8592764139175415,-1.6294176578521729,0.3375954031944275,-0.6280409693717957,-0.657613217830658,-3.096411943435669,21.4709529876709
0.5599290990003283,-0.5114867687225342,0.010422381572425365,0.02247399091720581,-0.8589339852333069,-1.477231502532959,0.384069561958313,-0.5990137457847595,-1.810335397720337,-7.693422794342041,18.3919734954834
0.5627422449997539,-0.5119674801826477,0.011383665725588799,0.023293107748031616,-0.8586134910583496,-1.1974446773529053,0.4208548665046692,-0.5637256503105164,-0.7401922345161438,-4.236164093017578,21.936967849731445
0.565600042999904,-0.5124314427375793,0.012308445759117603,0.023936059325933456,-0.8583062291145325,-1.0273798704147339,0.47916483879089355,-0.5415124297142029,-2.0118329524993896,-6.497223854064941,19.43138313293457
0.5685792579997724,-0.5133236050605774,0.013983137905597687,0.024570349603891373,-0.8577293753623962,-0.5980008840560913,0.602085530757904,-0.5065274238586426,-2.1514475345611572,-10.282380104064941,14.110026359558105
0.5714226090003649,-0.5141728520393372,0.015282643027603626,0.02426363341510296,-0.8572071194648743,-0.10893074423074722,0.6641091108322144,-0.47573354840278625,-1.0519311428070068,-6.963793754577637,14.068999290466309
0.5742046770001252,-0.5145949125289917,0.015793051570653915,0.023859044536948204,-0.856955885887146,0.08473336696624756,0.6596338748931885,-0.4723655581474304,0.10976745933294296,-8.904027938842773,8.748540878295898
0.5775091169998632,-0.5154446959495544,0.016369787976145744,0.02257516048848629,-0.8564690351486206,0.46091142296791077,0.5652682781219482,-0.47815969586372375,1.0834513902664185,-4.396796703338623,7.430798053741455
0.5804443890001494,-0.5158876776695251,0.016478195786476135,0.021840902045369148,-0.8562192320823669,0.5746040940284729,0.4854075014591217,-0.4936979413032532,2.626866340637207,-2.969494104385376,4.640625953674316
0.5832385390003765,-0.5168068408966064,0.016270039603114128,0.020270634442567825,-0.8557073473930359,0.7978231310844421,0.26905596256256104,-0.5204642415046692,2.774956226348877,-4.402782440185547,1.4008233547210693
0.5860873410001659,-0.5172829031944275,0.015979770570993423,0.019511768594384193,-0.8554427623748779,0.8017626404762268,0.15775707364082336,-0.5376642346382141,4.339291095733643,-0.2916758060455322,2.2803053855895996
0.5889139709997835,-0.5182585120201111,0.015065210871398449,0.01817748136818409,-0.8548980951309204,0.8042834401130676,-0.09639941155910492,-0.5621503591537476,4.62661075592041,0.5948224067687988,1.350425362586975
0.5915214639999249,-0.5182585120201111,0.015065210871398449,0.01817748136818409,-0.8548980951309204,0.8042834401130676,-0.09639941155910492,-0.5621503591537476,5.1575822830200195,1.4157955646514893,1.7407008409500122
0.5940784430003987,-0.5192409157752991,0.013710369355976582,0.017132386565208435,-0.8543461561203003,0.8297214508056641,-0.36799123883247375,-0.5646694302558899,5.755775451660156,3.372056245803833,2.401978015899658
0.5973212380004043,-0.519728422164917,0.012907330878078938,0.016756104305386543,-0.8540696501731873,0.7403930425643921,-0.478548526763916,-0.5686575770378113,5.407764911651611,2.6298837661743164,1.695389986038208
0.600393855999755,-0.5206900835037231,0.011125855147838593,0.016367711126804352,-0.8535163402557373,0.588970422744751,-0.7009499669075012,-0.5652062892913818,5.551967144012451,3.675144910812378,2.7145276069641113
0.6029307970002264,-0.5211614966392517,0.010183979757130146,0.01636754721403122,-0.8532403707504272,0.4912931025028229,-0.7930338978767395,-0.561453104019165,5.734551429748535,4.289886951446533,3.550328254699707
0.6051137200001904,-0.5220845937728882,0.00829449761658907,0.01677519455552101,-0.8526883721351624,0.25909480452537537,-0.9334127306938171,-0.5528621077537537,5.536903381347656,-1.553470492362976,10.780343055725098
0.6072909820004497,-0.5224957466125488,0.007369778584688902,0.016999030485749245,-0.8524405360221863,0.29117351770401,-0.896405816078186,-0.4973328411579132,6.140460014343262,0.4264284074306488,9.85897445678711
0.6093424399996366,-0.522871732711792,0.006477443501353264,0.017220454290509224,-0.8522127866744995,0.2763896882534027,-0.868286669254303,-0.4562772512435913,6.006725311279297,-1.0842233896255493,11.964978218078613
0.6114240939996307,-0.522871732711792,0.006477443501353264,0.017220454290509224,-0.8522127866744995,0.2763896882534027,-0.868286669254303,-0.4562772512435913,6.006725311279297,-1.0842233896255493,11.964978218078613
0.6135051769997517,-0.5235065221786499,0.0048638926818966866,0.017586655914783478,-0.8518262505531311,0.2421397566795349,-0.7446914315223694,-0.3653024733066559,4.904177188873291,-1.0084530115127563,16.428146362304688
0.6156135500004893,-0.52376389503479,0.0041807712987065315,0.017739104107022285,-0.8516685366630554,0.22623683512210846,-0.6564152836799622,-0.3145411014556885,5.401666164398193,-1.0304489135742188,17.98099136352539
0.6176946929999758,-0.5239775776863098,0.0035894284956157207,0.017857879400253296,-0.8515372276306152,0.20713165402412415,-0.5614986419677734,-0.2617509961128235,4.37687873840332,-1.3803530931472778,19.392812728881836
0.6197761769999488,-0.5241450071334839,0.003094135085120797,0.017942005768418312,-0.8514344096183777,0.18665021657943726,-0.4624827802181244,-0.20557692646980286,4.911840915679932,-1.2254024744033813,20.272212982177734
0.6218577409999853,-0.5242669582366943,0.002698307391256094,0.017997056245803833,-0.851359486579895,0.15963268280029297,-0.36345574259757996,-0.15036886930465698,4.801321983337402,-1.3073731660842896,20.939157485961914
0.6239388340000005,-0.5243439078330994,0.002402283949777484,0.018026096746325493,-0.8513123989105225,0.1298312395811081,-0.2657355070114136,-0.09560856968164444,4.662375450134277,-1.4160367250442505,21.39202880859375
0.6260204079999312,-0.5243764519691467,0.002204202814027667,0.018031710758805275,-0.8512927293777466,0.09880807995796204,-0.1709383875131607,-0.04159668833017349,4.55817174911499,-1.531604528427124,21.64797592163086
0.6281018620002214,-0.5243764519691467,0.002204202814027667,0.018031710758805275,-0.8512927293777466,0.09880807995796204,-0.1709383875131607,-0.04159668833017349,4.55817174911499,-1.531604528427124,21.64797592163086
0.6301868119999199,-0.524312436580658,0.0020841252990067005,0.017980793491005898,-0.8513335585594177,0.03930757939815521,0.0038180770352482796,0.06251666694879532,3.6260156631469727,-2.146592617034912,21.708436965942383
0.633123847999741,-0.5240803360939026,0.002269401913508773,0.017836065962910652,-0.8514789938926697,0.0064352755434811115,0.14817564189434052,0.1640183925628662,3.6261260509490967,-2.2749176025390625,20.935457229614258
0.6358673129998351,-0.5240803360939026,0.002269401913508773,0.017836065962910652,-0.8514789938926697,0.0064352755434811115,0.14817564189434052,0.1640183925628662,3.6261260509490967,-2.2749176025390625,20.935457229614258
0.6384849349997239,-0.5236888527870178,0.002690826542675495,0.01763075776398182,-0.8517228960990906,-0.030441291630268097,0.25376245379447937,0.25737637281417847,2.976609230041504,-2.6464171409606934,20.185792922973633
0.6411030870003742,-0.5231414437294006,0.0032769259996712208,0.017387021332979202,-0.8520622253417969,-0.04940807819366455,0.32159432768821716,0.3520212173461914,3.162930727005005,-3.9776742458343506,15.459515571594238
0.6436909530002595,-0.5227960348129272,0.0035844934172928333,0.017247913405299187,-0.8522757291793823,-0.039791446179151535,0.3281351625919342,0.41178521513938904,2.5841968059539795,-4.064174175262451,15.143847465515137
0.6462993280001683,-0.5224010944366455,0.0038887953851372004,0.017097417265176773,-0.8525195717811584,-0.02803351730108261,0.33034199476242065,0.4698629081249237,3.904104232788086,-4.606333255767822,10.190421104431152
0.6489340910002284,-0.5219435691833496,0.004162737168371677,0.016934847459197044,-0.8528017401695251,-0.001468999427743256,0.30954745411872864,0.5427759885787964,3.209773302078247,-5.271853923797607,10.545731544494629
0.6514737779998541,-0.5214326977729797,0.004380297381430864,0.01671118289232254,-0.8531175255775452,0.0804082378745079,0.2923089861869812,0.6051459312438965,3.74731707572937,-4.284307479858398,8.546427726745605
0.6545243450000271,-0.5202540755271912,0.004675104282796383,0.016159480437636375,-0.8538458347320557,0.19477973878383636,0.24096956849098206,0.7263146042823792,2.6305301189422607,-4.370563507080078,6.379382610321045
0.6572920360003991,-0.5195966958999634,0.004734195303171873,0.015815408900380135,-0.8542521595954895,0.26653537154197693,0.2169368863105774,0.7752822637557983,2.4176480770111084,-4.382580280303955,4.387589454650879
0.6599239739998666,-0.518163800239563,0.004647191613912582,0.014985672198235989,-0.8551374673843384,0.4189428687095642,0.1447875052690506,0.8653402328491211,1.1197540760040283,-3.8145670890808105,3.3953206539154053
0.6627653220002685,-0.5174010992050171,0.004508072044700384,0.014499066397547722,-0.8556082844734192,0.4917129576206207,0.11955854296684265,0.896325945854187,0.8638541102409363,-3.894454002380371,1.4904744625091553
0.6654135910002879,-0.5158001184463501,0.004025218542665243,0.013392480090260506,-0.8565948009490967,0.6388801336288452,0.0455964170396328,0.9530234336853027,-0.23775839805603027,-4.160346031188965,-1.4868590831756592
0.6682292309997138,-0.5149650573730469,0.0036715727765113115,0.012773292139172554,-0.8571081161499023,0.7163177728652954,0.0031964231748133898,0.9778339266777039,-1.101728916168213,-3.5539793968200684,0.6941940188407898
0.6708699150003667,-0.5141201615333557,0.0032616599928587675,0.012104627676308155,-0.8576265573501587,0.7877280712127686,-0.019695749506354332,0.9883060455322266,-1.7256132364273071,-3.817547082901001,0.25838273763656616
0.6735673149996728,-0.5124110579490662,0.002260967856273055,0.010578115470707417,-0.8586721420288086,0.9648120999336243,-0.057683542370796204,1.0008859634399414,-3.6041860580444336,-5.142674922943115,0.03525707125663757
0.6767719800000123,-0.5115492939949036,0.0016575659392401576,0.009680402465164661,-0.8591977953910828,1.0836431980133057,-0.06843113154172897,1.0049968957901,-3.7917518615722656,-4.144671440124512,2.3971376419067383
0.6796673779999765,-0.5098400712013245,0.00032581304549239576,0.007624552585184574,-0.860235333442688,1.2774593830108643,-0.04693751782178879,0.990924060344696,-5.262292385101318,-5.422811508178711,4.6082353591918945
0.6822707230003289,-0.5089950561523438,-0.00039996381383389235,0.006424072664231062,-0.860745370388031,1.4063398838043213,-0.018895167857408524,0.9818316698074341,-4.747074604034424,-4.322263240814209,6.618099212646484
0.6848740080004063,-0.5081620216369629,-0.0011475449427962303,0.005118006840348244,-0.8612455129623413,1.5082519054412842,0.016152728348970413,0.9662367701530457,-4.897527694702148,-4.768040180206299,7.560299873352051
0.6877690560004339,-0.5065565705299377,-0.0027289865538477898,0.0021289947908371687,-0.8621997833251953,1.7572119235992432,0.09503820538520813,0.9118651151657104,-4.29061222076416,-4.644906044006348,10.473955154418945
0.6905439909996858,-0.5058009028434753,-0.003558434545993805,0.00043726712465286255,-0.8626428246498108,1.8817763328552246,0.1414061337709427,0.8695814609527588,-3.639784336090088,-3.1363472938537598,12.017627716064453
0.6931394909997834,-0.5050750970840454,-0.004380939994007349,-0.0013366870116442442,-0.8630632758140564,1.9490808248519897,0.18891800940036774,0.832102358341217,-3.018709421157837,-2.333742618560791,13.929476737976074
0.6958777669997289,-0.5037479400634766,-0.005932435393333435,-0.004988478496670723,-0.8638159036636353,1.9516706466674805,0.26601117849349976,0.7242022156715393,-2.104952096939087,-1.2203333377838135,16.92812728881836
0.6991324749997148,-0.5031427145004272,-0.006629879120737314,-0.006821243558079004,-0.8641510009765625,1.9364277124404907,0.3257959187030792,0.6841928958892822,-1.7171568870544434,-1.7004573345184326,17.213539123535156
0.7017669580000074,-0.5020459890365601,-0.007919909432530403,-0.010472729802131653,-0.8647412657737732,1.872981309890747,0.3830394148826599,0.5925924777984619,-1.7991702556610107,2.3532369136810303,18.106689453125
0.704522445999828,-0.5015473961830139,-0.008427958004176617,-0.012188094668090343,-0.865003228187561,1.7396165132522583,0.4291578233242035,0.554422914981842,-0.7129001021385193,1.0922304391860962,20.065113067626953
0.7071809429999121,-0.5006608963012695,-0.009160080924630165,-0.015317734330892563,-0.8654595017433167,1.4356974363327026,0.48996177315711975,0.46539267897605896,-1.3562040328979492,4.858701229095459,18.35064125061035
0.7099006150001514,-0.5006608963012695,-0.009160080924630165,-0.015317734330892563,-0.8654595017433167,1.4356974363327026,0.48996177315711975,0.46539267897605896,-0.9774408340454102,3.2958710193634033,20.44708824157715
0.7125864340005137,-0.49991101026535034,-0.00935269333422184,-0.017879469320178032,-0.8658416867256165,1.031398892402649,0.5862990617752075,0.39022958278656006,-2.06388258934021,5.911495208740234,18.75626564025879
0.7153259520000574,-0.4995766878128052,-0.009204805828630924,-0.01892164535820484,-0.8660140633583069,0.8284738659858704,0.6566321849822998,0.3632332682609558,-2.490588903427124,7.203917980194092,17.77081298828125
0.7179270830001769,-0.4989621043205261,-0.008372110314667225,-0.020523639395833015,-0.8663402795791626,0.373476505279541,0.8070045709609985,0.32338640093803406,-3.0058045387268066,10.339241981506348,14.448159217834473
0.7207893100003275,-0.49868252873420715,-0.0076498547568917274,-0.02102212980389595,-0.8664959669113159,0.07062885910272598,0.8814882040023804,0.3008919656276703,-1.269824743270874,10.862688064575195,13.028273582458496
0.7238679399997636,-0.4981685280799866,-0.005663483403623104,-0.021297089755535126,-0.8668001294136047,-0.5146772861480713,0.9456160664558411,0.2717845141887665,-1.0881338119506836,6.532431125640869,8.727080345153809
0.7273590169997988,-0.4976474642753601,-0.003310122061520815,-0.020892100408673286,-0.8671213984489441,-0.8440831899642944,0.9084904789924622,0.2874757945537567,0.29091769456863403,4.661287307739258,3.6280112266540527
0.7301369770002566,-0.4973657429218292,-0.0020992832724004984,-0.020476611331105232,-0.8672966957092285,-0.9655802249908447,0.8496436476707458,0.3076002597808838,0.8119844198226929,4.896812438964844,0.5075052976608276
0.7328581709998616,-0.4967425465583801,0.0002866608265321702,-0.019154014065861702,-0.8676865100860596,-1.2311006784439087,0.6621206402778625,0.35566839575767517,2.435601234436035,3.621142864227295,-0.24006615579128265
0.735667058999752,-0.496406227350235,0.0014228703221306205,-0.018258526921272278,-0.8678971529006958,-1.3455370664596558,0.5474293231964111,0.37445834279060364,2.435601234436035,3.621142864227295,-0.24006615579128265
0.7383699290003278,-0.49569031596183777,0.003410263219848275,-0.016248391941189766,-0.8683406114578247,-1.3797398805618286,0.3066015839576721,0.40871888399124146,3.8247575759887695,-0.15043771266937256,-1.2874517440795898
0.7412661190001018,-0.49531447887420654,0.004238880705088377,-0.015148942358791828,-0.8685712814331055,-1.3704650402069092,0.1798555552959442,0.42347797751426697,4.380114555358887,-1.0139504671096802,-0.9033442735671997
0.744015827000112,-0.49531447887420654,0.004238880705088377,-0.015148942358791828,-0.8685712814331055,-1.3704650402069092,0.1798555552959442,0.42347797751426697,4.380114555358887,-1.0139504671096802,-0.9033442735671997
0.7467293770005199,-0.494150310754776,0.005981903523206711,-0.011716832406818867,-0.8692769408226013,-1.2467094659805298,-0.16784216463565826,0.44184958934783936,4.179116249084473,0.07947954535484314,-1.4692131280899048
0.74946334499964,-0.49376365542411804,0.006342334672808647,-0.010483409278094769,-0.8695098161697388,-1.2553353309631348,-0.2930445373058319,0.4395895302295685,5.130219459533691,-3.629188060760498,-0.27261707186698914
0.7522681749996991,-0.49376365542411804,0.006342334672808647,-0.010483409278094769,-0.8695098161697388,-1.2553353309631348,-0.2930445373058319,0.4395895302295685,5.130219459533691,-3.629188060760498,-0.27261707186698914
0.7543456410003273,-0.49299857020378113,0.00666347099468112,-0.008168365806341171,-0.8699662685394287,-1.042049765586853,-0.47556737065315247,0.43439579010009766,4.472728252410889,-3.1173341274261475,-0.3164522051811218
0.7564269149997926,-0.4926226735115051,0.006639615632593632,-0.007081265095621347,-0.8701888918876648,-0.9383035898208618,-0.5551055669784546,0.4297288954257965,4.634179592132568,-3.7302286624908447,0.6881221532821655
0.7585208319997037,-0.49186742305755615,0.006192974280565977,-0.005205721594393253,-0.870632529258728,-0.6019161343574524,-0.6924087405204773,0.4401118755340576,3.0156984329223633,-6.877506256103516,3.240706205368042
0.7606026359999305,-0.49186742305755615,0.006192974280565977,-0.005205721594393253,-0.870632529258728,-0.6019161343574524,-0.6924087405204773,0.4401118755340576,3.0156984329223633,-6.877506256103516,3.240706205368042
0.762684440999692,-0.49147751927375793,0.005736371502280235,-0.004489123821258545,-0.8708598017692566,-0.4029032588005066,-0.7493821978569031,0.44918444752693176,3.6260972023010254,-7.538307189941406,4.395181179046631
0.7647659439999188,-0.49108222126960754,0.005130391102284193,-0.0039312997832894325,-0.8710892200469971,-0.19125813245773315,-0.801423966884613,0.45653441548347473,2.535348653793335,-7.713714599609375,5.80750846862793
0.766847437999786,-0.4906843304634094,0.004376005381345749,-0.0035384688526391983,-0.8713192343711853,0.025328917428851128,-0.8496655225753784,0.46048063039779663,1.9381810426712036,-3.820258378982544,10.436479568481445
0.7689416160001201,-0.49030938744544983,0.003569428576156497,-0.003250683890655637,-0.871535062789917,0.14261756837368011,-0.8436152935028076,0.43419623374938965,2.694366455078125,-4.662485599517822,10.816095352172852
0.7710234300002412,-0.4896210730075836,0.0018078292487189174,-0.0030032419599592686,-0.8719282746315002,0.3716096580028534,-0.8157116174697876,0.38427531719207764,1.8941680192947388,-2.1310391426086426,14.866155624389648
0.7731054750001931,-0.4896210730075836,0.0018078292487189174,-0.0030032419599592686,-0.8719282746315002,0.3716096580028534,-0.8157116174697876,0.38427531719207764,1.8941680192947388,-2.1310391426086426,14.866155624389648
0.7751966570003788,-0.4890514612197876,5.559446071856655e-05,-0.0030862640123814344,-0.8722494840621948,0.4871695041656494,-0.7139296531677246,0.3099384307861328,2.036470651626587,-0.39846178889274597,17.451133728027344
0.7772905640003955,-0.4888201951980591,-0.0007601825636811554,-0.003220574464648962,-0.8723782896995544,0.5156989097595215,-0.6451699137687683,0.26721855998039246,2.1208765506744385,0.2279089093208313,18.299833297729492
0.7793354100003853,-0.4888201951980591,-0.0007601825636811554,-0.003220574464648962,-0.8723782896995544,0.5156989097595215,-0.6451699137687683,0.26721855998039246,2.1208765506744385,0.2279089093208313,18.299833297729492
0.7814193579997664,-0.4884750545024872,-0.002207972342148423,-0.003636071691289544,-0.8725674748420715,0.5382421612739563,-0.4893617630004883,0.175702303647995,2.2860584259033203,1.2050658464431763,19.307214736938477
0.784259103000295,-0.4883629381656647,-0.0028261197730898857,-0.003903936594724655,-0.872627317905426,0.5357098579406738,-0.40799039602279663,0.1287163943052292,2.3259646892547607,1.6898362636566162,19.50165557861328
0.7869820610003444,-0.4882603585720062,-0.0038273215759545565,-0.0045091393403708935,-0.8726779818534851,0.4967685639858246,-0.24979746341705322,0.03400403633713722,1.3916620016098022,2.812438726425171,19.172603607177734
0.789692274999652,-0.4882734715938568,-0.004212061408907175,-0.004831591155380011,-0.872667133808136,0.4692484140396118,-0.17841435968875885,-0.016233697533607483,1.3916620016098022,2.812438726425171,19.172603607177734
0.7924356900002749,-0.4883381426334381,-0.004533672705292702,-0.005152376368641853,-0.8726274967193604,0.43689218163490295,-0.12450749427080154,-0.07556308060884476,1.3259607553482056,4.234830856323242,13.513851165771484
0.7951447320001535,-0.48865652084350586,-0.005030014086514711,-0.00573296844959259,-0.872442901134491,0.3527317941188812,-0.06004267558455467,-0.2196761667728424,0.7756102085113525,4.377533435821533,13.58907413482666
0.7978792209996755,-0.4889127314090729,-0.005210360046476126,-0.005984255112707615,-0.8722966313362122,0.30691033601760864,-0.036752935498952866,-0.29522815346717834,1.6301872730255127,4.222314834594727,9.483393669128418
0.8005694980001863,-0.48923584818840027,-0.005360126961022615,-0.006204987410455942,-0.8721129894256592,0.2651826739311218,-0.02561298944056034,-0.37188488245010376,1.0071260929107666,4.280143737792969,10.235066413879395
0.803284851999706,-0.4896169602870941,-0.0054617878049612045,-0.006376747041940689,-0.8718972206115723,0.19882595539093018,-0.008150286972522736,-0.43824854493141174,1.2148391008377075,3.91841983795166,8.29896068572998
0.8059991430000082,-0.49055010080337524,-0.005579880438745022,-0.006578830536454916,-0.871370255947113,0.08601493388414383,-0.01150360144674778,-0.568882405757904,0.6347082853317261,3.79852557182312,6.572132110595703
0.8087377000001652,-0.49109315872192383,-0.0055990805849432945,-0.006598383653908968,-0.8710640668869019,0.025440914556384087,-0.012419980950653553,-0.623396098613739,0.6170111298561096,3.906118631362915,4.899603366851807
0.81146454500049,-0.4923139214515686,-0.005543552339076996,-0.0064324913546442986,-0.8703762888908386,-0.13556157052516937,-0.02195712737739086,-0.72495436668396,0.05999782308936119,4.000504493713379,1.4486019611358643
0.814087656999618,-0.4929896593093872,-0.005489684175699949,-0.006236025132238865,-0.8699954748153687,-0.19881637394428253,-0.05629503354430199,-0.7748883962631226,-0.15639477968215942,4.0295844078063965,2.8689122200012207
0.8167417960003149,-0.49369513988494873,-0.00540880998596549,-0.0059755463153123856,-0.8695976734161377,-0.2678774893283844,-0.06463650614023209,-0.8089584112167358,-0.46268680691719055,4.209747314453125,2.099095106124878
0.8194004440001663,-0.49442729353904724,-0.005301172845065594,-0.005647276993840933,-0.8691844940185547,-0.34009307622909546,-0.07507382333278656,-0.8395370841026306,-1.0057095289230347,4.480204105377197,1.1261590719223022
0.8220881160004865,-0.4959673583507538,-0.0050016664899885654,-0.00476217782124877,-0.8683136701583862,-0.5033931732177734,-0.10172212868928909,-0.8970379829406738,-2.162292003631592,4.392506122589111,3.1737682819366455
0.8247770910002146,-0.4967639446258545,-0.004790436010807753,-0.004206447396427393,-0.8678622841835022,-0.5891461968421936,-0.09826131165027618,-0.913806676864624,-2.7927165031433105,4.783553600311279,3.513794183731079
0.8274745110002186,-0.49839457869529724,-0.00418512150645256,-0.002851641969755292,-0.8669355511665344,-0.7941799163818359,-0.0704360231757164,-0.9431948661804199,-4.582835674285889,6.135848522186279,4.828113079071045
0.8302129069998045,-0.49922749400138855,-0.003757174825295806,-0.0020306508522480726,-0.8664604425430298,-0.9271638989448547,-0.04253903403878212,-0.9566545486450195,-5.462050437927246,6.870358943939209,6.174954891204834
0.8329148359998726,-0.5000694394111633,-0.003218795172870159,-0.001096051069907844,-0.8659785985946655,-1.080752968788147,-0.0036131886299699545,-0.9676523208618164,-4.776627540588379,5.394784450531006,8.262552261352539
0.8355386189996352,-0.5017513036727905,-0.0018422759603708982,0.0010092606535181403,-0.8650093674659729,-1.3186887502670288,0.09260980784893036,-0.9655213356018066,-4.585968971252441,5.256988048553467,11.123661994934082
0.8383554909996747,-0.5025748014450073,-0.0009921184973791242,0.0021828110329806805,-0.8645304441452026,-1.443700909614563,0.14651258289813995,-0.9496060609817505,-4.220658302307129,4.9099650382995605,12.948368072509766
0.8410143199998856,-0.5033732652664185,-3.0266770409070887e-05,0.0034296957310289145,-0.8640622496604919,-1.5631871223449707,0.20617584884166718,-0.9222680926322937,-3.7278473377227783,3.4020471572875977,14.41258430480957
0.8437015010003961,-0.5049007534980774,0.0021353948395699263,0.005969313904643059,-0.8631541132926941,-1.6266138553619385,0.2657809555530548,-0.8999897241592407,-3.2443814277648926,2.4943389892578125,16.2797794342041
0.8464346970004044,-0.5056167244911194,0.0033081111032515764,0.007203972898423672,-0.8627218008041382,-1.6588588953018188,0.3940522074699402,-0.8319454789161682,-2.49373459815979,2.1439502239227295,18.79525375366211
0.8492460400002528,-0.5069504976272583,0.005773695185780525,0.00957197230309248,-0.86190265417099,-1.618285059928894,0.49843060970306396,-0.7607374787330627,-2.5964252948760986,0.060974180698394775,19.19289779663086
0.851989484999649,-0.5075623393058777,0.006960612256079912,0.01058054156601429,-0.8615219593048096,-1.4711089134216309,0.5197674632072449,-0.7148057818412781,-1.8779693841934204,-0.5395843386650085,21.20720863342285
0.8546092710002995,-0.5081453919410706,0.008150101639330387,0.011498087085783482,-0.8611559867858887,-1.3940399885177612,0.5677757859230042,-0.6818280816078186,-2.628753185272217,-3.6900265216827393,19.840532302856445
0.8572749519998979,-0.5087008476257324,0.00929904356598854,0.01225649006664753,-0.860805869102478,-1.2364319562911987,0.6132796406745911,-0.6492123007774353,-2.4306068420410156,-4.414186954498291,20.22804832458496
0.8598669160001009,-0.5097313523292542,0.011443846859037876,0.01323535293340683,-0.8601557016372681,-0.8700138330459595,0.7082297205924988,-0.5840842127799988,-2.9953136444091797,-6.778398513793945,19.547155380249023
0.8624966899997162,-0.510212242603302,0.012426592409610748,0.013403001241385937,-0.8598542809486389,-0.6436259150505066,0.7696729898452759,-0.5561903715133667,-3.049088716506958,-7.149462699890137,19.29098892211914
0.8650867710002785,-0.5111207365989685,0.014230094850063324,0.013061034493148327,-0.8592918515205383,-0.19924616813659668,0.9067821502685547,-0.5071792602539062,-2.3745219707489014,-10.561905860900879,16.65947151184082
0.8676815700000589,-0.511539876461029,0.014997569844126701,0.01249124575406313,-0.8590378165245056,0.09998876601457596,0.9598045945167542,-0.4718579053878784,-2.0995774269104004,-10.788683891296387,13.328413009643555
0.8704198860004908,-0.51193767786026,0.01563737541437149,0.011657007038593292,-0.8588011264801025,0.39236631989479065,0.9848824739456177,-0.44231417775154114,-1.3284543752670288,-8.045645713806152,12.08353042602539
0.8732488409996222,-0.5123233199119568,0.016185132786631584,0.010652107186615467,-0.8585740327835083,0.5859748721122742,0.9929081797599792,-0.42536500096321106,-0.81224125623703,-7.918599605560303,9.683586120605469
0.8763138350004738,-0.5130752921104431,0.016928186640143394,0.008213428780436516,-0.8581373691558838,0.9405691623687744,0.9309898614883423,-0.40761029720306396,0.6885377764701843,-5.287833213806152,5.737443447113037
0.8789661419996264,-0.5134522318840027,0.01712440699338913,0.006864465307444334,-0.8579198718070984,1.0615155696868896,0.8672817349433899,-0.41062936186790466,1.662554144859314,-3.9215445518493652,4.825974941253662
0.8815575039998294,-0.5138343572616577,0.017210491001605988,0.00548218609765172,-0.8576992154121399,1.1467143297195435,0.7899899482727051,-0.4168691635131836,2.2053768634796143,-5.071043014526367,3.213881015777588
0.8841673010001614,-0.5146064162254333,0.016981467604637146,0.002619474660605192,-0.8572543263435364,1.2990598678588867,0.5961815118789673,-0.424144983291626,3.692824363708496,-1.1787569522857666,2.993006944656372
0.8867234079998525,-0.514997124671936,0.016720125451683998,0.0012487544445320964,-0.8570278882980347,1.3155869245529175,0.4862128496170044,-0.4288782775402069,3.5401771068573,-2.7866108417510986,0.43228861689567566
0.8893842409997887,-0.515389621257782,0.016305241733789444,-0.00012406652967911214,-0.8568007946014404,1.396488904953003,0.3557199537754059,-0.43089908361434937,4.593416690826416,1.0250777006149292,1.743113398551941
0.8919638309998845,-0.5161831378936768,0.015238368883728981,-0.0025749369524419308,-0.8563387989997864,1.312740683555603,0.11646527051925659,-0.4406221807003021,4.601304531097412,1.4026561975479126,0.5506026148796082
0.894587003000197,-0.5165815353393555,0.014587103389203548,-0.003643280128017068,-0.8561059832572937,1.2577067613601685,-0.003721296787261963,-0.44338056445121765,4.884501934051514,2.045985698699951,1.0813100337982178
0.8971883249996608,-0.5173712968826294,0.01312622707337141,-0.005410173907876015,-0.8556432723999023,1.096097469329834,-0.21808436512947083,-0.4405040442943573,5.228475570678711,3.0809433460235596,2.441879987716675
0.8998217859998476,-0.517758309841156,0.012349347583949566,-0.006095562130212784,-0.8554160594940186,0.9946920275688171,-0.3092429041862488,-0.43550267815589905,5.346678733825684,3.5580644607543945,2.9547908306121826
0.9024554469997383,-0.5181388854980469,0.011562513187527657,-0.006642821244895458,-0.8551925420761108,0.8815869688987732,-0.38928231596946716,-0.4297390878200531,5.43919563293457,4.024938106536865,3.332000970840454
0.9045405980004944,-0.5185134410858154,0.010780823417007923,-0.007048684172332287,-0.8549724221229553,0.757907509803772,-0.45814549922943115,-0.4244527518749237,5.074199676513672,4.027529239654541,3.3831512928009033
0.9066217810004673,-0.5188825726509094,0.010014043189585209,-0.007318067364394665,-0.8547555208206177,0.6334096193313599,-0.5161605477333069,-0.41974005103111267,1.0169496536254883,8.277528762817383,5.553930759429932
0.9087027539999326,-0.5196438431739807,0.008630710653960705,-0.007156915031373501,-0.8543094396591187,0.19174224138259888,-0.6674746870994568,-0.4409700930118561,2.111644744873047,7.9640069007873535,6.164768695831299
0.9107836769999267,-0.5196438431739807,0.008630710653960705,-0.007156915031373501,-0.8543094396591187,0.19174224138259888,-0.6674746870994568,-0.4409700930118561,2.111644744873047,7.9640069007873535,6.164768695831299
0.9128654810001535,-0.5200290679931641,0.008016365580260754,-0.006749333348125219,-0.8540842533111572,-0.024024223908782005,-0.7374522089958191,-0.4452192485332489,1.6167535781860352,8.220932960510254,7.127462863922119
0.9149501210004019,-0.5207685232162476,0.006942238658666611,-0.00538314413279295,-0.8536527156829834,-0.3553519546985626,-0.8233338594436646,-0.4139449894428253,0.9153594374656677,4.685317039489746,11.561602592468262
0.9170303520004381,-0.5207685232162476,0.006942238658666611,-0.00538314413279295,-0.8536527156829834,-0.3553519546985626,-0.8233338594436646,-0.4139449894428253,0.9153594374656677,4.685317039489746,11.561602592468262
0.9191166950004117,-0.5213980674743652,0.006047921255230904,-0.003605525242164731,-0.8532845377922058,-0.5685791373252869,-0.8452488780021667,-0.3508903980255127,1.1010360717773438,2.2631070613861084,15.304219245910645
0.9211985199999617,-0.5213980674743652,0.006047921255230904,-0.003605525242164731,-0.8532845377922058,-0.5685791373252869,-0.8452488780021667,-0.3508903980255127,1.1010360717773438,2.2631070613861084,15.304219245910645
0.923286205000295,-0.521885871887207,0.0053438968025147915,-0.0016610946040600538,-0.8529969453811646,-0.6599579453468323,-0.789245069026947,-0.26520854234695435,1.3730440139770508,0.370173841714859,17.856563568115234
0.9253241579999667,-0.5220687389373779,0.005062410607933998,-0.0007013009744696319,-0.8528881072998047,-0.6706396341323853,-0.7407317757606506,-0.21743568778038025,1.3730440139770508,0.370173841714859,17.856563568115234
0.9274134460001733,-0.5220687389373779,0.005062410607933998,-0.0007013009744696319,-0.8528881072998047,-0.6706396341323853,-0.7407317757606506,-0.21743568778038025,1.5277153253555298,-0.25953564047813416,18.72792625427246
0.9295092069996826,-0.5223042964935303,0.0046460446901619434,0.001112448750063777,-0.8527458310127258,-0.6596728563308716,-0.6185604929924011,-0.11644089967012405,1.8298581838607788,-1.104146122932434,19.842317581176758
0.9315895279996766,-0.5223556160926819,0.00451461598277092,0.0019513529259711504,-0.8527135848999023,-0.6465237140655518,-0.5500317215919495,-0.06464972347021103,1.8298581838607788,-1.104146122932434,19.842317581176758
0.9345920060004573,-0.5223260521888733,0.0044063786044716835,0.003474441124126315,-0.8527274131774902,-0.6118782758712769,-0.4085933566093445,0.03829190507531166,1.4864425659179688,-2.088329553604126,20.295732498168945
0.9373398500001713,-0.5222451686859131,0.004428228363394737,0.004156976006925106,-0.8527737855911255,-0.6118782758712769,-0.4085933566093445,0.03829190507531166,1.4864425659179688,-2.088329553604126,20.295732498168945
0.9401572939996186,-0.5222451686859131,0.004428228363394737,0.004156976006925106,-0.8527737855911255,-0.5936241149902344,-0.33835914731025696,0.09026475250720978,0.6623603105545044,-3.1255433559417725,20.03999900817871
0.9427855450003335,-0.5219340324401855,0.0045732432045042515,0.005339079536497593,-0.8529568910598755,-0.5231025815010071,-0.22496922314167023,0.21025505661964417,0.8009817004203796,-3.876655340194702,16.748125076293945
0.9454082459997153,-0.5216968059539795,0.004668902140110731,0.005842488259077072,-0.8530982136726379,-0.4796443581581116,-0.1830662339925766,0.2743059992790222,0.9966868162155151,-4.229651927947998,13.641243934631348
0.9481348010003785,-0.5210294723510742,0.004833063576370478,0.006688355002552271,-0.8534988164901733,-0.3776450753211975,-0.1484052836894989,0.4268319308757782,0.9972236752510071,-4.127206325531006,11.40860652923584
0.9508351860004041,-0.5206000208854675,0.0048934477381408215,0.007034988142549992,-0.8537576794624329,-0.3276572525501251,-0.13319198787212372,0.5001479983329773,1.1827661991119385,-4.319549560546875,9.943217277526855
0.9535131700004058,-0.5195704102516174,0.004915138240903616,0.007540727965533733,-0.8543802499771118,-0.19104476273059845,-0.1295541524887085,0.6337363123893738,1.5287635326385498,-4.262478828430176,5.313096046447754
0.9563180909999573,-0.518970251083374,0.004857158288359642,0.007719553541392088,-0.8547436594963074,-0.1228698119521141,-0.14876145124435425,0.7002650499343872,0.7649532556533813,-3.888061285018921,6.107880115509033
0.9590361290001965,-0.5183242559432983,0.004758341237902641,0.007843533530831337,-0.8551349639892578,-0.05480488762259483,-0.1556927114725113,0.7538712024688721,0.7178477644920349,-3.9355204105377197,4.4221930503845215
0.9617427860002863,-0.5169068574905396,0.00440933695062995,0.007937591522932053,-0.8559934496879578,0.08549698442220688,-0.19259820878505707,0.8504701256752014,0.37244489789009094,-4.177917003631592,0.6974055767059326
0.9646196700005021,-0.5161394476890564,0.004144794773310423,0.007913954555988312,-0.8564579486846924,0.15727990865707397,-0.22236789762973785,0.8949974179267883,0.9959255456924438,-5.089313507080078,1.610364556312561
0.9671468540000205,-0.5153449773788452,0.0038337097503244877,0.007797113619744778,-0.8569387793540955,0.2611449956893921,-0.2144056111574173,0.9266677498817444,-0.9127038717269897,-3.657072067260742,1.8558015823364258
0.9695868549997613,-0.5136938095092773,0.003072446445003152,0.007401471491903067,-0.8579361438751221,0.4072965979576111,-0.236230731010437,0.9729412794113159,-1.5296134948730469,-3.933445930480957,2.4691874980926514
0.9721668270003647,-0.5128500461578369,0.0026378012262284756,0.007100490853190422,-0.8584448099136353,0.48266908526420593,-0.2260941118001938,0.9829028844833374,-2.61940860748291,-5.567515850067139,0.06888899207115173
0.9747706019998077,-0.5119907855987549,0.0021446957252919674,0.006700461730360985,-0.8589621186256409,0.5976987481117249,-0.2256147712469101,1.0004980564117432,-3.0267128944396973,-4.946018695831299,2.063220500946045
0.9773275810002815,-0.5111241340637207,0.001609979895874858,0.006202826742082834,-0.859483003616333,0.7028509974479675,-0.21144020557403564,1.0085842609405518,-3.6553852558135986,-5.064540386199951,3.180647373199463
0.9798516290002226,-0.5093783140182495,0.0004461754870135337,0.00487262150272727,-0.860528826713562,0.9327229261398315,-0.14799410104751587,1.0164031982421875,-4.185042858123779,-4.459203243255615,6.346425533294678
0.9824508860001515,-0.5076426267623901,-0.0007949242135509849,0.0030535932164639235,-0.8615619540214539,1.1771587133407593,-0.048425693064928055,1.0025352239608765,-4.935093402862549,-5.2978620529174805,8.796424865722656
0.9851031620000867,-0.506787896156311,-0.0014442879473790526,0.001928923767991364,-0.8620674014091492,1.3008406162261963,0.009254895150661469,0.9901052117347717,-4.577995300292969,-4.800398349761963,10.31822681427002
0.987508307999633,-0.506787896156311,-0.0014442879473790526,0.001928923767991364,-0.8620674014091492,1.3008406162261963,0.009254895150661469,0.9901052117347717,-4.577995300292969,-4.800398349761963,10.31822681427002
0.9899799380000331,-0.505137026309967,-0.002748221857473254,-0.0007013609283603728,-0.8630344867706299,1.5186445713043213,0.1365988403558731,0.9379175305366516,-3.7221057415008545,-2.9463210105895996,13.520452499389648
0.9925232920004419,-0.5043445825576782,-0.0033674263395369053,-0.002156198723241687,-0.8634932041168213,1.5702152252197266,0.2023141235113144,0.9120430946350098,-3.2876908779144287,-2.2130608558654785,15.327239036560059
0.9950211200002741,-0.5035794973373413,-0.003938982263207436,-0.003671812592074275,-0.8639321327209473,1.5986145734786987,0.2739846408367157,0.8781439065933228,-2.921835422515869,-1.6817712783813477,16.89378547668457
0.9974851360002503,-0.5021465420722961,-0.004914961755275726,-0.006827302277088165,-0.8647416234016418,1.6112526655197144,0.4073399305343628,0.7983442544937134,-2.2796390056610107,-1.2953038215637207,18.844879150390625
0.9999390929997389,-0.5014792680740356,-0.005325694102793932,-0.008433865383267403,-0.8651121854782104,1.5962599515914917,0.45792973041534424,0.7579907178878784,-2.2796390056610107,-1.2953038215637207,18.844879150390625
1.0024661959996592,-0.5002367496490479,-0.005884143989533186,-0.011507376097142696,-0.8657922148704529,1.431638240814209,0.5574941635131836,0.6821850538253784,-2.009611129760742,2.6323816776275635,20.208528518676758
1.0051428079996185,-0.4996628165245056,-0.0060134874656796455,-0.012930544093251228,-0.8661025762557983,1.2966759204864502,0.6083680391311646,0.6452997922897339,-2.009611129760742,2.6323816776275635,20.208528518676758
1.0076342849997673,-0.4996628165245056,-0.0060134874656796455,-0.012930544093251228,-0.8661025762557983,1.2966759204864502,0.6083680391311646,0.6452997922897339,-2.203878164291382,5.768157958984375,19.038522720336914
1.010135860000446,-0.4986174404621124,-0.005838887300342321,-0.01531038898974657,-0.8666672706604004,0.900086522102356,0.7092905044555664,0.5682607293128967,-2.9260268211364746,6.896843433380127,18.731796264648438
1.0126868879997346,-0.49813467264175415,-0.005510474555194378,-0.016275784000754356,-0.8669294118881226,0.6717302799224854,0.7749099135398865,0.538431704044342,-2.9782562255859375,7.481536865234375,18.445192337036133
1.0151989730002242,-0.4976746141910553,-0.0050043403171002865,-0.017076022922992706,-0.8671812415122986,0.44006243348121643,0.8462845683097839,0.5116565823554993,-2.8921940326690674,8.028679847717285,18.01322364807129
1.0177023719998033,-0.49682557582855225,-0.003419749438762665,-0.018114078789949417,-0.8676546216011047,-0.09779444336891174,0.9858098030090332,0.4529573917388916,-2.213176965713501,10.996357917785645,13.060396194458008
1.020203957999911,-0.4964415431022644,-0.0023380264174193144,-0.018277335911989212,-0.8678745627403259,-0.3984478712081909,1.027381181716919,0.4223339557647705,-1.1181882619857788,8.525941848754883,13.022021293640137
1.0228089560005174,-0.4957258999347687,0.00017813612066674978,-0.018090838566422462,-0.8682906031608582,-0.8099081516265869,1.0477745532989502,0.3844406008720398,-0.09302201867103577,6.8857598304748535,7.247686862945557
1.0252640950002387,-0.4957258999347687,0.00017813612066674978,-0.018090838566422462,-0.8682906031608582,-0.8099081516265869,1.0477745532989502,0.3844406008720398,-0.09302201867103577,6.8857598304748535,7.247686862945557
1.027730325000448,-0.4950293302536011,0.0029107388108968735,-0.017265520989894867,-0.868699848651886,-1.102968692779541,0.9617881774902344,0.37900546193122864,1.4305051565170288,4.000556945800781,3.553258180618286
1.0302036479997696,-0.49467360973358154,0.0042649623937904835,-0.016671573743224144,-0.8689084649085999,-1.190980076789856,0.8879268169403076,0.38716012239456177,1.4305051565170288,4.000556945800781,3.553258180618286
1.0326439800001026,-0.49431195855140686,0.005599582102149725,-0.015916956588625908,-0.8691207766532898,-1.320976734161377,0.7914978265762329,0.39383187890052795,2.7300009727478027,3.8292486667633057,1.29367995262146
1.0351528589999361,-0.49357569217681885,0.008128538727760315,-0.013970454223453999,-0.8695526123046875,-1.5254589319229126,0.5617261528968811,0.40310174226760864,3.0563831329345703,3.3780272006988525,0.4072173833847046
1.0376711360004265,-0.4931999742984772,0.009254389442503452,-0.012872779741883278,-0.8697714805603027,-1.5162895917892456,0.44067123532295227,0.4100695550441742,3.7528648376464844,0.45722344517707825,-0.24661317467689514
1.040123620000486,-0.49282026290893555,0.010265099816024303,-0.01171176228672266,-0.8699917793273926,-1.5146528482437134,0.3093227446079254,0.41514259576797485,3.9340927600860596,-0.42246106266975403,-0.8304323554039001
1.0428124239997487,-0.49243637919425964,0.01114927139133215,-0.01051253080368042,-0.870213508605957,-1.4855972528457642,0.18043597042560577,0.42061668634414673,4.377005577087402,-1.3260748386383057,-0.32389822602272034
1.0454364280003574,-0.4916646480560303,0.012515454553067684,-0.008105405606329441,-0.8706569671630859,-1.3513028621673584,-0.05233095586299896,0.4245702028274536,4.959031105041504,-2.70744252204895,1.1017390489578247
1.0478164670003025,-0.491281658411026,0.012996400706470013,-0.0069429934956133366,-0.870876133441925,-1.2550969123840332,-0.1524161547422409,0.42275527119636536,4.959031105041504,-2.70744252204895,1.1017390489578247
1.0503080240005147,-0.491281658411026,0.012996400706470013,-0.0069429934956133366,-0.870876133441925,-1.2550969123840332,-0.1524161547422409,0.42275527119636536,4.813737392425537,-3.0520176887512207,1.1136144399642944
1.0523354280003332,-0.49052688479423523,0.0135677270591259,-0.00478703249245882,-0.8713072538375854,-1.0237730741500854,-0.3195715844631195,0.4165509045124054,5.060891151428223,-3.8383748531341553,2.396648645401001
1.0544145270005174,-0.49015751481056213,0.013669529929757118,-0.0038215534295886755,-0.8715183138847351,-0.8971878886222839,-0.3859865665435791,0.41174542903900146,5.484415054321289,-4.574531078338623,2.940809488296509
1.0564930749997075,-0.4894168972969055,0.013448966667056084,-0.0022585210390388966,-0.8719432950019836,-0.509762704372406,-0.5210582613945007,0.4243220090866089,2.1371376514434814,-7.425208568572998,4.763256072998047
1.05857413800004,-0.4894168972969055,0.013448966667056084,-0.0022585210390388966,-0.8719432950019836,-0.509762704372406,-0.5210582613945007,0.4243220090866089,2.1371376514434814,-7.425208568572998,4.763256072998047
1.060652637000203,-0.489037424325943,0.013083706609904766,-0.0017176623223349452,-0.8721629977226257,-0.29843398928642273,-0.5852882266044617,0.43195149302482605,2.4953136444091797,-8.090031623840332,5.46453332901001
1.0627319969999007,-0.48865577578544617,0.01255031954497099,-0.0013374804984778166,-0.8723853826522827,-0.07610926777124405,-0.653378427028656,0.43755629658699036,2.068028688430786,-8.381874084472656,6.417680263519287
1.0648103849998733,-0.4882751703262329,0.011846734210848808,-0.0011224282206967473,-0.8726086020469666,0.15112698078155518,-0.7211765050888062,0.4393748641014099,0.9182963371276855,-8.194670677185059,7.433368682861328
1.0668896839997615,-0.487547904253006,0.010031705722212791,-0.0011108501348644495,-0.8730378746986389,0.4948767125606537,-0.807132363319397,0.40894338488578796,0.3561843931674957,-4.425996780395508,11.611787796020508
1.0689726310001788,-0.487547904253006,0.010031705722212791,-0.0011108501348644495,-0.8730378746986389,0.4948767125606537,-0.807132363319397,0.40894338488578796,0.3561843931674957,-4.425996780395508,11.611787796020508
1.071056038000279,-0.48722273111343384,0.00901416502892971,-0.001243004691787064,-0.8732303380966187,0.6080004572868347,-0.8254899382591248,0.38016366958618164,0.3676445484161377,-3.185997486114502,13.266268730163574
1.073122714999954,-0.48666608333587646,0.006896750535815954,-0.0016911571146920323,-0.8735592365264893,0.7314544916152954,-0.807266116142273,0.30675214529037476,0.5032046437263489,-1.9458403587341309,14.84859561920166
1.075187987999925,-0.48666608333587646,0.006896750535815954,-0.0016911571146920323,-0.8735592365264893,0.7314544916152954,-0.807266116142273,0.30675214529037476,0.6673519015312195,-0.9545350074768066,16.142681121826172
1.0772695519999615,-0.486259788274765,0.004847862292081118,-0.0022852809634059668,-0.8737978339195251,0.7594462037086487,-0.728096604347229,0.21572145819664001,0.8405354619026184,-0.17651158571243286,17.16718864440918
1.079332481000165,-0.486259788274765,0.004847862292081118,-0.0022852809634059668,-0.8737978339195251,0.7594462037086487,-0.728096604347229,0.21572145819664001,1.0102299451828003,0.4427976608276367,17.962160110473633
1.081417412000519,-0.4860225319862366,0.002994977403432131,-0.002968312706798315,-0.873936116695404,0.7418631911277771,-0.6132798790931702,0.11567296832799911,1.341533899307251,1.3476043939590454,18.983726501464844
1.0840564529999028,-0.4860225319862366,0.002994977403432131,-0.002968312706798315,-0.873936116695404,0.7418631911277771,-0.6132798790931702,0.11567296832799911,1.341533899307251,1.3476043939590454,18.983726501464844
1.0866034030004812,-0.4859611690044403,0.0014009765582159162,-0.003713378682732582,-0.8739714026451111,0.7017037272453308,-0.48213905096054077,0.013270610943436623,0.8555600047111511,2.2746939659118652,19.44043731689453
1.0892458409998653,-0.4859980642795563,0.000711869855877012,-0.004099106416106224,-0.8739500045776367,0.6721253395080566,-0.4149179756641388,-0.03955207020044327,0.7340101599693298,2.7527880668640137,19.016897201538086
1.091878531000475,-0.48621904850006104,-0.00046095388825051486,-0.004865319933742285,-0.8738232851028442,0.6001715660095215,-0.30194512009620667,-0.15578149259090424,0.08296256512403488,3.912752151489258,16.806718826293945
1.0944394970001667,-0.48641061782836914,-0.0009524095221422613,-0.005226205103099346,-0.8737142086029053,0.5547475218772888,-0.25495851039886475,-0.21822276711463928,0.19851180911064148,4.334990978240967,14.108724594116211
1.096952634000445,-0.48698675632476807,-0.0017794403247535229,-0.00585221266373992,-0.8733879327774048,0.44790980219841003,-0.1994219869375229,-0.36795321106910706,1.1415098905563354,4.237442493438721,9.92778491973877
1.0994124919998285,-0.48737633228302,-0.0021351962350308895,-0.006108670495450497,-0.8731680512428284,0.39782893657684326,-0.18849264085292816,-0.44568562507629395,1.1415098905563354,4.237442493438721,9.92778491973877
1.1018204439997135,-0.48737633228302,-0.0021351962350308895,-0.006108670495450497,-0.8731680512428284,0.39782893657684326,-0.18849264085292816,-0.44568562507629395,1.3471407890319824,4.266388416290283,8.20518970489502
1.1042486730002565,-0.48834705352783203,-0.0027660923078656197,-0.006453321781009436,-0.8726212382316589,0.27440938353538513,-0.2005837857723236,-0.5919314622879028,0.7294190526008606,3.7817509174346924,7.026821136474609
1.106674337000186,-0.4889165163040161,-0.0030415570363402367,-0.006544839590787888,-0.8723007440567017,0.21487629413604736,-0.20024549961090088,-0.6519252061843872,0.6978068351745605,3.8560292720794678,5.594902038574219
1.1090168070004438,-0.48953428864479065,-0.0032903074752539396,-0.006578205153346062,-0.871953010559082,0.15111947059631348,-0.20577308535575867,-0.7073555588722229,0.5928300619125366,3.9413061141967773,3.9307239055633545
1.11159566599963,-0.4909038245677948,-0.003695596707984805,-0.006431008223444223,-0.8711822032928467,-0.014196494594216347,-0.21793697774410248,-0.8084676265716553,1.370174527168274,5.428705215454102,0.4595889747142792
1.1141439889997855,-0.49164944887161255,-0.003824524348601699,-0.006223511882126331,-0.8707625865936279,-0.11753283441066742,-0.22052617371082306,-0.8539883494377136,-0.41131213307380676,4.288939952850342,0.5664383172988892
1.116681862000405,-0.49242734909057617,-0.003935668151825666,-0.005943099036812782,-0.8703243732452393,-0.18977700173854828,-0.24116197228431702,-0.8910306096076965,-0.5791230797767639,4.283628940582275,2.34745454788208
1.1191790200000469,-0.49403291940689087,-0.004017663653939962,-0.005187506787478924,-0.8694184422492981,-0.3497043550014496,-0.22358907759189606,-0.9285029172897339,-1.80779230594635,4.74704647064209,1.7324789762496948
1.1216460010000446,-0.4948570132255554,-0.003982050344347954,-0.004702217411249876,-0.8689525723457336,-0.44040757417678833,-0.2149328887462616,-0.9448791742324829,-1.80779230594635,4.74704647064209,1.7324789762496948
1.1241651990003447,-0.4948570132255554,-0.003982050344347954,-0.004702217411249876,-0.8689525723457336,-0.44040757417678833,-0.2149328887462616,-0.9448791742324829,-2.2866554260253906,4.137416362762451,3.9632108211517334
1.1266681269999026,-0.49652934074401855,-0.0037135998718440533,-0.0035131375771015882,-0.8680049180984497,-0.6447155475616455,-0.17401789128780365,-0.9663990139961243,-3.801608085632324,4.787398815155029,4.520050525665283
1.1291901209997377,-0.49737757444381714,-0.003465548623353243,-0.002801669994369149,-0.8675227165222168,-0.7421783804893494,-0.14272546768188477,-0.9739237427711487,-4.455346584320068,5.111356735229492,5.665574550628662
1.1315601819997028,-0.4990842044353485,-0.0026875564362853765,-0.001147194067016244,-0.8665485382080078,-0.974494218826294,-0.05383273959159851,-0.9825753569602966,-4.6780877113342285,4.292840957641602,8.78841781616211
1.1339982899999086,-0.4999355375766754,-0.0021563314367085695,-0.00022731319768354297,-0.8660598993301392,-1.0639753341674805,-0.0010555709013715386,-0.9797407984733582,-5.053621292114258,4.6126790046691895,10.252579689025879
1.1364739470000131,-0.5007811784744263,-0.0015231859870254993,0.0007510946597903967,-0.8655722737312317,-1.1656047105789185,0.0579572431743145,-0.9741775989532471,-5.134097099304199,5.472024917602539,11.293000221252441
1.1389870640005029,-0.5024065375328064,9.382005373481661e-05,0.0029483807738870382,-0.8646265268325806,-1.407509446144104,0.17990973591804504,-0.9266008138656616,-4.221462726593018,3.3501296043395996,14.691234588623047
1.14146798100046,-0.5024065375328064,9.382005373481661e-05,0.0029483807738870382,-0.8646265268325806,-1.407509446144104,0.17990973591804504,-0.9266008138656616,-4.221462726593018,3.3501296043395996,14.691234588623047
1.143969296999785,-0.5031815767288208,0.0010480110067874193,0.004103634040802717,-0.8641703128814697,-1.4795271158218384,0.24694019556045532,-0.8965941667556763,-3.692471504211426,2.4996232986450195,16.601444244384766
1.146477184000105,-0.5046281218528748,0.003201889805495739,0.006411908660084009,-0.8633070588111877,-1.5558650493621826,0.3855881690979004,-0.8193817138671875,-3.0567760467529297,0.19412939250469208,18.611454010009766
1.1489068359996963,-0.5053038597106934,0.0043521239422261715,0.007493163459002972,-0.8628979921340942,-1.5143553018569946,0.4530160129070282,-0.7858516573905945,-2.753606081008911,-0.4122188687324524,19.385093688964844
1.151401318000353,-0.5065648555755615,0.006691954098641872,0.009386472404003143,-0.8621248006820679,-1.3677453994750977,0.5630835890769958,-0.7171952724456787,-2.2287325859069824,-1.4824508428573608,20.74559783935547
1.1538973739998255,-0.5071486234664917,0.007853301241993904,0.010175582021474838,-0.8617627620697021,-1.2681002616882324,0.6093930006027222,-0.6810266971588135,-2.636971950531006,-3.5478506088256836,20.448434829711914
1.1563957830003346,-0.507703959941864,0.008987454697489738,0.01080692932009697,-0.8614169359207153,-1.1184148788452148,0.6655519604682922,-0.6473889350891113,-2.198992967605591,-5.563658237457275,19.9251766204834
1.158857063999676,-0.5082234740257263,0.010041995905339718,0.011237747967243195,-0.8610933423042297,-0.9053364396095276,0.6981933116912842,-0.604263961315155,-2.510692596435547,-5.023712635040283,20.730710983276367
1.1612882589997753,-0.5087171792984009,0.011058293282985687,0.011480358429253101,-0.8607861399650574,-0.7239119410514832,0.7604596018791199,-0.5722611546516418,-2.9636149406433105,-6.566474437713623,19.50448226928711
1.1638379140003963,-0.5091879963874817,0.012019393965601921,0.011509979143738747,-0.8604944348335266,-0.5125680565834045,0.8208646774291992,-0.542961597442627,-3.0436851978302,-7.283578872680664,19.169029235839844
1.1661976149998736,-0.5100696086883545,0.013779335655272007,0.010891088284552097,-0.859953761100769,-0.06699252128601074,0.9585363268852234,-0.4898640513420105,-2.6885335445404053,-9.356046676635742,15.750667572021484
1.1688530070005072,-0.5104785561561584,0.014563181437551975,0.010227815248072147,-0.8597063422203064,0.17350773513317108,1.020250678062439,-0.46021798253059387,-2.102567195892334,-10.91439151763916,12.93476390838623
1.1714168090002204,-0.5112387537956238,0.015754861757159233,0.008124633692204952,-0.8592559099197388,0.7388903498649597,1.060030460357666,-0.40868061780929565,-0.5004886388778687,-7.188207149505615,9.628667831420898
1.1738128180004423,-0.5116026997566223,0.016188090667128563,0.006816937122493982,-0.8590425848960876,0.9061629772186279,1.0471183061599731,-0.3976110517978668,0.10161612927913666,-6.752665042877197,7.306872367858887
1.1761731209999198,-0.5119634866714478,0.01650227978825569,0.0053915176540613174,-0.8588317632675171,1.0681604146957397,1.0050221681594849,-0.3925875723361969,1.0542560815811157,-5.415616035461426,5.9508056640625
1.1786553499996444,-0.5123241543769836,0.016699818894267082,0.0038890258874744177,-0.8586209416389465,1.194069743156433,0.944298505783081,-0.39181482791900635,1.6279488801956177,-3.9554085731506348,3.6187217235565186
1.1810571400001209,-0.5126909017562866,0.016784535720944405,0.0023543548304587603,-0.8584059476852417,1.279587984085083,0.8640049695968628,-0.39909598231315613,2.518648386001587,-2.629539728164673,2.7022080421447754
1.1835097650000534,-0.5130652785301208,0.016763757914304733,0.0008238766458816826,-0.8581854701042175,1.330189824104309,0.7714083790779114,-0.4087718427181244,2.9285969734191895,-3.762131690979004,1.1844457387924194
1.1858647879998898,-0.5138253569602966,0.016276689246296883,-0.0023081889376044273,-0.8577373027801514,1.516642689704895,0.5382956266403198,-0.41604083776474,3.868126153945923,0.25650903582572937,0.40135806798934937
1.1882491550004488,-0.5142127871513367,0.015874303877353668,-0.0037930747494101524,-0.8575072884559631,1.4872359037399292,0.4206804037094116,-0.4254249334335327,3.861696481704712,-0.039482858031988144,-0.5308915376663208
1.1906247870001607,-0.5146046876907349,0.015370123088359833,-0.005197412800043821,-0.8572739958763123,1.4705926179885864,0.29200732707977295,-0.43179991841316223,4.245267391204834,0.6198709607124329,-0.0234697163105011
1.1930084229998101,-0.5149968266487122,0.014778115786612034,-0.006506863981485367,-0.8570399880409241,1.4344525337219238,0.16789628565311432,-0.433401495218277,4.558509826660156,1.3512455224990845,0.6091809272766113
1.1953533670002798,-0.515386164188385,0.01411651261150837,-0.0077071418054401875,-0.8568071126937866,1.3766791820526123,0.052027128636837006,-0.43157151341438293,4.820751667022705,2.028618574142456,1.2217869758605957
1.1978385120000894,-0.5161486268043518,0.01265620719641447,-0.009736631065607071,-0.8563501834869385,1.2062407732009888,-0.15042974054813385,-0.42147296667099,5.198523044586182,3.1601085662841797,2.201795816421509
1.2002631440000187,-0.5165198445320129,0.011890498921275139,-0.010550868697464466,-0.8561276793479919,1.0993560552597046,-0.23624466359615326,-0.41493451595306396,5.310568809509277,3.6336066722869873,2.5676612854003906
1.2023391180000544,-0.5168841481208801,0.011121364310383797,-0.011225128546357155,-0.855909526348114,0.9811607003211975,-0.3114592134952545,-0.4084664285182953,5.025964260101318,3.7105510234832764,2.5663821697235107
1.2044169749997309,-0.517241895198822,0.010358702391386032,-0.011761768721044064,-0.8556957244873047,0.8599003553390503,-0.37702691555023193,-0.4021327793598175,0.7068561911582947,8.228716850280762,4.820769309997559
1.2064945219999572,-0.517609715461731,0.009642042219638824,-0.012045194394886494,-0.8554777503013611,0.6195876598358154,-0.4687117338180542,-0.4161458909511566,2.3765480518341064,7.794095516204834,4.776017189025879
1.2085724990001836,-0.5179833173751831,0.008975324220955372,-0.012102659791707993,-0.8552579879760742,0.40050986409187317,-0.5429995656013489,-0.4247966706752777,1.2689754962921143,8.254060745239258,5.797288417816162
1.210672698000053,-0.5183594226837158,0.008362114429473877,-0.011922293342649937,-0.8550388813018799,0.16939961910247803,-0.6204645037651062,-0.4293439984321594,0.8713237047195435,8.650758743286133,6.6306939125061035
1.2127521379998143,-0.5187355875968933,0.007804795168340206,-0.011496960185468197,-0.8548218011856079,-0.06905082613229752,-0.6996744275093079,-0.43110391497612,1.4112616777420044,8.838810920715332,7.252781867980957
1.2148296440000195,-0.5191104412078857,0.007302282378077507,-0.010832034051418304,-0.854607343673706,-0.30233103036880493,-0.7771158218383789,-0.4310612678527832,0.5372438430786133,8.384071350097656,8.074893951416016
1.2169072309998228,-0.519481360912323,0.006848242599517107,-0.009945177473127842,-0.8543964624404907,-0.5172245502471924,-0.8508803844451904,-0.42803043127059937,0.09828973561525345,4.249278545379639,11.86738109588623
1.219001317999755,-0.5201396942138672,0.0060392408631742,-0.007872993126511574,-0.8540235757827759,-0.7224847674369812,-0.8977351188659668,-0.3664382994174957,0.4817464053630829,3.2003252506256104,13.721513748168945
1.221082822000426,-0.5204243063926697,0.005685921758413315,-0.006725121755152941,-0.8538624048233032,-0.7935465574264526,-0.9000636339187622,-0.3309996724128723,0.4817464053630829,3.2003252506256104,13.721513748168945
1.223148435999974,-0.5204243063926697,0.005685921758413315,-0.006725121755152941,-0.8538624048233032,-0.7935465574264526,-0.9000636339187622,-0.3309996724128723,0.7059065103530884,1.96444571018219,15.27200984954834
1.2252305709998836,-0.5208813548088074,0.0050879414193332195,-0.004385878797620535,-0.8536026477813721,-0.8485481142997742,-0.8475720882415771,-0.2447262555360794,0.9289333820343018,0.951697051525116,16.524736404418945
1.2272982790000242,-0.5208813548088074,0.0050879414193332195,-0.004385878797620535,-0.8536026477813721,-0.8485481142997742,-0.8475720882415771,-0.2447262555360794,1.1398652791976929,0.1469404101371765,17.51344108581543
1.2293190199998207,-0.5210478901863098,0.004846513736993074,-0.003245705971494317,-0.8535075187683105,-0.8462353348731995,-0.8002244830131531,-0.1964101940393448,1.3347506523132324,-0.49059396982192993,18.275501251220703
1.2313890030000039,-0.5211705565452576,0.004646013490855694,-0.002147928113117814,-0.8534371852874756,-0.8316684365272522,-0.743181049823761,-0.14605103433132172,0.7524104118347168,-1.2993966341018677,18.92671775817871
1.2342474229999425,-0.5212783217430115,0.0043700262904167175,-0.0001268691848963499,-0.8533755540847778,-0.7758713960647583,-0.6102007627487183,-0.040443941950798035,1.8914787769317627,-1.718619465827942,19.437036514282227
1.2367991110004368,-0.5212653875350952,0.004297391977161169,0.0007887915708124638,-0.8533834218978882,-0.7435972094535828,-0.5393317937850952,0.011174384504556656,1.2614448070526123,-2.288109302520752,19.580307006835938
1.2394000619997314,-0.5211021304130554,0.00427249213680625,0.0024092469830065966,-0.8534802198410034,-0.6660463809967041,-0.3990422189235687,0.11843708157539368,1.0883766412734985,-3.5164923667907715,16.850217819213867
1.2420672159996684,-0.5209433436393738,0.004298759158700705,0.003114578314125538,-0.8535747528076172,-0.6161247491836548,-0.3459177613258362,0.1818298101425171,0.47149544954299927,-3.941409111022949,16.6331787109375
1.2458499559998018,-0.5204543471336365,0.004377368837594986,0.0043046544305980206,-0.8538674712181091,-0.4976906478404999,-0.2602938413619995,0.31947386264801025,0.9220004677772522,-4.513796806335449,11.625885009765625
1.2492228930004785,-0.5197029709815979,0.004405681509524584,0.005232974421232939,-0.8543196320533752,-0.3755623996257782,-0.22706055641174316,0.4752937853336334,0.6967061758041382,-4.287823677062988,10.222074508666992
1.2522986969997874,-0.5192378759384155,0.004382670857012272,0.005592363886535168,-0.8546002507209778,-0.2956554591655731,-0.21010412275791168,0.5414413213729858,0.2428024709224701,-3.6050522327423096,10.914448738098145
1.2551576080004452,-0.5187265872955322,0.00435340590775013,0.005883808247745037,-0.8549088835716248,-0.23438774049282074,-0.18055076897144318,0.5957735180854797,2.1089136600494385,-5.195967674255371,6.463680267333984
1.2576482739996209,-0.5175579786300659,0.004197461064904928,0.0061861444264650345,-0.855615496635437,-0.040916040539741516,-0.14806324243545532,0.7120638489723206,0.2468683272600174,-3.7071473598480225,4.648964881896973
1.2601475250003205,-0.5169062614440918,0.004059558268636465,0.006242907606065273,-0.8560096025466919,0.02250800095498562,-0.1530558168888092,0.7605257630348206,0.7442653179168701,-4.209144592285156,2.264054298400879
1.2625649339997835,-0.5162177085876465,0.0038795170839875937,0.006241938099265099,-0.8564258813858032,0.09369746595621109,-0.15960468351840973,0.8034610748291016,0.5576827526092529,-4.235933303833008,0.42351168394088745
1.2650419940000575,-0.5154937505722046,0.003649189369753003,0.006191365886479616,-0.8568632006645203,0.1621321141719818,-0.17736785113811493,0.844537079334259,0.10449077934026718,-4.189996242523193,-0.5262449979782104
1.2675288420005018,-0.5147377848625183,0.003365592798218131,0.006096284370869398,-0.8573193550109863,0.22772963345050812,-0.2003345638513565,0.8814833164215088,-0.46393918991088867,-4.225037097930908,-0.9634383916854858
1.269940420000239,-0.5131478905677795,0.0026372603606432676,0.005767628084868193,-0.8582767844200134,0.3635774850845337,-0.24412140250205994,0.939269483089447,-1.6831419467926025,-3.723205804824829,1.8068374395370483
1.2724011500004053,-0.5123308897018433,0.0022145200055092573,0.005525099579244852,-0.8587675094604492,0.4257603883743286,-0.24438147246837616,0.9511909484863281,-2.2802810668945312,-4.133947372436523,2.3406732082366943
1.27484390599966,-0.5106750726699829,0.0012603605864569545,0.004812406841665506,-0.8597593903541565,0.5985960364341736,-0.22689129412174225,0.9669791460037231,-3.9191782474517822,-5.1262898445129395,3.419210195541382
1.2779912040005001,-0.5098370313644409,0.0007303264574147761,0.004310648888349533,-0.8602598905563354,0.7034188508987427,-0.20413045585155487,0.9742026329040527,-4.775471210479736,-5.794247150421143,4.5678791999816895
1.280690407000293,-0.5089938640594482,0.00016522516671102494,0.0036825663410127163,-0.8607622385025024,0.8299736976623535,-0.16991586983203888,0.9795020818710327,-5.513864517211914,-6.319076061248779,6.078511714935303
1.2835243709996575,-0.507303774356842,-0.0010377642465755343,0.0020195788238197565,-0.8617643117904663,1.075762391090393,-0.0716082826256752,0.9781287908554077,-4.999885082244873,-5.1378984451293945,9.52953052520752
1.286565862000316,-0.5064687728881836,-0.0016531243454664946,0.0009972939733415842,-0.8622561097145081,1.1950032711029053,-0.012862274423241615,0.9667395949363708,-4.792137145996094,-5.056244373321533,10.98624038696289
1.2893441220003297,-0.5048482418060303,-0.002886093221604824,-0.0014250109670683742,-0.8632020950317383,1.3974775075912476,0.11388895660638809,0.926241934299469,-3.9140305519104004,-3.1922903060913086,14.383463859558105
1.2918288970004141,-0.5040673613548279,-0.0034659607335925102,-0.002776538720354438,-0.8636529445648193,1.460998773574829,0.1841876357793808,0.8986115455627441,-3.4753289222717285,-2.7478461265563965,16.417776107788086
1.2943449690001216,-0.5033186078071594,-0.0040041254833340645,-0.004213901236653328,-0.8640813231468201,1.5140599012374878,0.2633035480976105,0.8591089844703674,-3.257779359817505,-1.3511313199996948,17.15453338623047
1.2975590409996585,-0.5025947690010071,-0.004477743059396744,-0.0056872437708079815,-0.8644918203353882,1.512637972831726,0.3370107412338257,0.8281541466712952,-2.8990931510925293,-0.8827503323554993,18.408552169799805
1.300579892999849,-0.5012324452400208,-0.0052174050360918045,-0.008671131916344166,-0.8652535080909729,1.460662603378296,0.4650014340877533,0.7577701807022095,-2.749915838241577,1.5038245916366577,19.523900985717773
1.3033604180000111,-0.5005922317504883,-0.005449266638606787,-0.010111150331795216,-0.8656070232391357,1.362472414970398,0.5285606980323792,0.7256531715393066,-2.5940442085266113,2.196767807006836,20.00895881652832
1.3061434070004907,-0.499396413564682,-0.005589515436440706,-0.012767171487212181,-0.8662614822387695,1.1251293420791626,0.6372632384300232,0.6568869352340698,-2.783017635345459,4.253062725067139,20.20033836364746
1.3087570919997233,-0.4988417625427246,-0.005474855657666922,-0.013946241699159145,-0.8665635585784912,0.9633665680885315,0.6969191431999207,0.6232852339744568,-2.8611137866973877,7.057267189025879,19.075645446777344
1.311327065000114,-0.4978260099887848,-0.0047660465352237225,-0.015796516090631485,-0.8671199679374695,0.5333941578865051,0.80910325050354,0.5527667999267578,-2.892937421798706,6.601656436920166,19.505781173706055
1.3140884539998297,-0.49735599756240845,-0.004183401819318533,-0.016514820978045464,-0.8673792481422424,0.3309447467327118,0.8714743256568909,0.5240211486816406,-2.9041566848754883,8.70090389251709,17.503192901611328
1.316866735000076,-0.4965028166770935,-0.002494403626769781,-0.017424503341317177,-0.8678566217422485,-0.14745548367500305,0.9973219633102417,0.45410266518592834,-1.630008339881897,9.122467041015625,14.686378479003906
1.319558414000312,-0.4961206018924713,-0.0014157380210235715,-0.017617829144001007,-0.8680737018585205,-0.37061113119125366,1.039315104484558,0.4201991856098175,-1.0315673351287842,10.285189628601074,12.190711975097656
1.3221425330002603,-0.495764821767807,-0.00019110212451778352,-0.017580943182110786,-0.8682788014411926,-0.6426976919174194,1.051332950592041,0.38909223675727844,-0.6138327121734619,9.277782440185547,8.777326583862305
1.3249813559996255,-0.49542462825775146,0.0011352106230333447,-0.01732291281223297,-0.868477463722229,-0.8850082159042358,1.0297064781188965,0.37058886885643005,0.2631152272224426,6.159056663513184,7.552433967590332
1.327601742999832,-0.49475613236427307,0.003865065285935998,-0.016382846981287003,-0.8688688278198242,-1.1543318033218384,0.9260449409484863,0.36195749044418335,1.7121355533599854,4.385557651519775,4.691384792327881
1.3302600209999582,-0.49442198872566223,0.005215054843574762,-0.015715843066573143,-0.8690642714500427,-1.2519493103027344,0.847678005695343,0.362326443195343,2.205524206161499,3.0067546367645264,2.7537639141082764
1.3329099319998932,-0.4937358796596527,0.007736481726169586,-0.01411215029656887,-0.8694629669189453,-1.3389322757720947,0.6529010534286499,0.3762042224407196,3.317681312561035,3.109210968017578,1.1413745880126953
1.3355333649997192,-0.4933883249759674,0.008899608626961708,-0.013140799477696419,-0.8696643710136414,-1.4243618249893188,0.5350517630577087,0.37766239047050476,4.285525798797607,-0.3940761983394623,2.2958619594573975
1.3382197840001027,-0.49303820729255676,0.009952879510819912,-0.012145661748945713,-0.8698659539222717,-1.3908731937408447,0.42781001329421997,0.3812463879585266,4.355669975280762,-0.2954590320587158,1.4304945468902588
1.340884002999701,-0.4923378527164459,0.011737440712749958,-0.00998174212872982,-0.8702678084373474,-1.4092860221862793,0.17949190735816956,0.38117170333862305,4.857733249664307,-2.026549816131592,1.022874355316162
1.344006735000221,-0.49198850989341736,0.01244844775646925,-0.008861307054758072,-0.8704676032066345,-1.33122980594635,0.06827539950609207,0.3821341395378113,4.6808180809021,-1.7063934803009033,0.5793007612228394
1.346748156999638,-0.49164140224456787,0.013027402572333813,-0.0077422671020030975,-0.8706659078598022,-1.2650054693222046,-0.045985542237758636,0.3806508779525757,4.903862953186035,-2.2760422229766846,1.1598652601242065
1.3495260059999055,-0.4909600615501404,0.013793911784887314,-0.005582080222666264,-0.8710549473762512,-1.0865569114685059,-0.24406802654266357,0.37343019247055054,4.988616466522217,-3.3381426334381104,1.8974149227142334
1.3522125259996756,-0.49029698967933655,0.014060860499739647,-0.003652262967079878,-0.8714343309402466,-0.8490300178527832,-0.39177727699279785,0.3659725487232208,4.735605716705322,-3.9013895988464355,2.788694381713867
1.3542953830001352,-0.49029698967933655,0.014060860499739647,-0.003652262967079878,-0.8714343309402466,-0.8490300178527832,-0.39177727699279785,0.3659725487232208,4.735605716705322,-3.9013895988464355,2.788694381713867
1.356334226999934,-0.48997199535369873,0.014024978503584862,-0.00280991243198514,-0.8716208338737488,-0.7217110395431519,-0.44570615887641907,0.3629264831542969,0.5953838229179382,-8.328312873840332,5.172296047210693
1.358425850000458,-0.48963722586631775,0.013801172375679016,-0.0021398519165813923,-0.8718143701553345,-0.47961899638175964,-0.5251591801643372,0.3778720200061798,1.9418879747390747,-7.549178600311279,5.105025291442871
1.3605157089996283,-0.48895397782325745,0.01286659948527813,-0.0012792565394192934,-0.8722137212753296,-0.037754546850919724,-0.6529859304428101,0.39429670572280884,1.1938194036483765,-8.421457290649414,6.981764316558838
1.3625967320003838,-0.48895397782325745,0.01286659948527813,-0.0012792565394192934,-0.8722137212753296,-0.037754546850919724,-0.6529859304428101,0.39429670572280884,1.1938194036483765,-8.421457290649414,6.981764316558838
1.3646778450001875,-0.4886110723018646,0.012145832180976868,-0.0011012982577085495,-0.8724164366722107,0.19253286719322205,-0.7178460359573364,0.3968362808227539,0.8142170906066895,-8.307720184326172,7.7980875968933105
1.3667602410005202,-0.4882696270942688,0.011263594962656498,-0.0010808480437844992,-0.8726194500923157,0.4088591933250427,-0.7817608714103699,0.3978167772293091,1.0910242795944214,-4.776582717895508,11.522201538085938
1.3688418049996471,-0.48765891790390015,0.00928245298564434,-0.0013235150836408138,-0.8729838728904724,0.6417762637138367,-0.8160222172737122,0.3451884984970093,0.3657121956348419,-3.4049794673919678,13.674294471740723
1.3709227680001277,-0.48765891790390015,0.00928245298564434,-0.0013235150836408138,-0.8729838728904724,0.6417762637138367,-0.8160222172737122,0.3451884984970093,0.3657121956348419,-3.4049794673919678,13.674294471740723
1.3730060549996779,-0.4873926639556885,0.008219829760491848,-0.0015582081396132708,-0.8731428384780884,0.7203992605209351,-0.8143263459205627,0.3135518729686737,0.5009429454803467,-2.1872615814208984,15.269582748413086
1.375087768999947,-0.4869612157344818,0.00610331492498517,-0.0021676754113286734,-0.873399555683136,0.7917011380195618,-0.7585626244544983,0.23402796685695648,0.824029266834259,-0.364673912525177,17.535186767578125
1.3771825280000485,-0.4869612157344818,0.00610331492498517,-0.0021676754113286734,-0.873399555683136,0.7917011380195618,-0.7585626244544983,0.23402796685695648,0.824029266834259,-0.364673912525177,17.535186767578125
1.3792642119997254,-0.48668500781059265,0.004132782109081745,-0.0028915086295455694,-0.8735629916191101,0.7917875647544861,-0.6570805907249451,0.14083683490753174,1.158923864364624,0.8255395293235779,18.8420467376709
1.3813364190000357,-0.48668500781059265,0.004132782109081745,-0.0028915086295455694,-0.8735629916191101,0.7917875647544861,-0.6570805907249451,0.14083683490753174,1.158923864364624,0.8255395293235779,18.8420467376709
1.3841913719998047,-0.4865773618221283,0.0024000192061066628,-0.0036814145278185606,-0.8736264109611511,0.7557785511016846,-0.5326477885246277,0.04159751906991005,1.4688557386398315,1.6257215738296509,19.446409225463867
1.386807711000074,-0.4866434931755066,0.0009475359111092985,-0.004504884593188763,-0.873588502407074,0.6964433193206787,-0.40131378173828125,-0.060419220477342606,0.7230337858200073,2.6888515949249268,19.166732788085938
1.3894218659997932,-0.4866434931755066,0.0009475359111092985,-0.004504884593188763,-0.873588502407074,0.6964433193206787,-0.40131378173828125,-0.060419220477342606,0.7230337858200073,2.6888515949249268,19.166732788085938
