timestamp,quat_w,quat_x,quat_y,quat_z,gyro_x,gyro_y,gyro_z,accel_x,accel_y,accel_z
1765752893.970504,0.9986491203308105,2.691133522603195e-05,-0.05195603892207146,0.0006706932908855379,1.7000938896671869e-06,-1.6578579220549727e-07,-6.505914598164964e-07,1.018000841140747,-0.00015631206042598933,9.757037162780762
1765752893.970635,0.9986491203308105,2.6913065084954724e-05,-0.05195603892207146,0.0006706927088089287,1.6984437252176576e-06,-1.6559300775043084e-07,-6.504389489236928e-07,1.018000841140747,-0.00015627765969838947,9.757037162780762
1765752893.9707038,0.9986491203308105,2.6913065084954724e-05,-0.05195603892207146,0.0006706927088089287,1.6984437252176576e-06,-1.6559300775043084e-07,-6.504389489236928e-07,1.018000841140747,-0.00015627765969838947,9.757037162780762
1765752893.971275,0.9986491203308105,2.6913065084954724e-05,-0.05195603892207146,0.0006706927088089287,1.6984437252176576e-06,-1.6559300775043084e-07,-6.504389489236928e-07,1.018000841140747,-0.00015627765969838947,9.757037162780762
1765752893.97258,0.9986491203308105,2.6914793124888092e-05,-0.05195603892207146,0.0006706921849399805,1.696794925010181e-06,-1.6540043645818514e-07,-6.50286551717727e-07,5.27297830581665,0.20807844400405884,18.742807388305664
1765752893.9734862,0.9986521005630493,1.8617560272105038e-05,-0.051899489015340805,0.0006728606531396508,-0.008135511539876461,0.056630153208971024,0.0025931482668966055,5.073257923126221,0.187997505068779,18.699140548706055
1765752893.9745786,0.9986521005630493,1.8617560272105038e-05,-0.051899489015340805,0.0006728606531396508,-0.008135511539876461,0.056630153208971024,0.0025931482668966055,5.073257923126221,0.187997505068779,18.699140548706055
1765752893.975652,0.9986578822135925,1.982766889341292e-06,-0.051787495613098145,0.0006773085915483534,-0.016306277364492416,0.11215650290250778,0.00529929855838418,2.072179079055786,0.11439641565084457,15.19966983795166
1765752893.9767926,0.9986578822135925,1.982766889341292e-06,-0.051787495613098145,0.0006773085915483534,-0.016306277364492416,0.11215650290250778,0.00529929855838418,2.072179079055786,0.11439641565084457,15.19966983795166
1765752893.9778578,0.9986650347709656,-2.016468351939693e-05,-0.05164970085024834,0.0006831380887888372,-0.02172251231968403,0.13799557089805603,0.006963553838431835,1.6168018579483032,-0.28740426898002625,14.43317699432373
1765752893.9789631,0.9986650347709656,-2.016468351939693e-05,-0.05164970085024834,0.0006831380887888372,-0.02172251231968403,0.13799557089805603,0.006963553838431835,1.6168018579483032,-0.28740426898002625,14.43317699432373
1765752893.9806871,0.9986732006072998,-3.298191950307228e-05,-0.05149102956056595,0.0006879157735966146,-0.01244480349123478,0.15888859331607819,0.005430879071354866,2.468536853790283,-0.03167396038770676,13.860087394714355
1765752893.9812346,0.9986732006072998,-3.298191950307228e-05,-0.05149102956056595,0.0006879157735966146,-0.01244480349123478,0.15888859331607819,0.005430879071354866,2.468536853790283,-0.03167396038770676,13.860087394714355
1765752893.9825807,0.9986826181411743,-4.865046503255144e-05,-0.0513087697327137,0.0006938946899026632,-0.015214205719530582,0.18251265585422516,0.006777368951588869,1.723915934562683,0.010935986414551735,12.34096908569336
1765752893.98343,0.9986926317214966,-6.041889719199389e-05,-0.05111273005604744,0.0006979898316785693,-0.011406293138861656,0.19630363583564758,0.0046961125917732716,1.597333312034607,0.005003055091947317,12.0570068359375
1765752893.9847767,0.9986926317214966,-6.041889719199389e-05,-0.05111273005604744,0.0006979898316785693,-0.011406293138861656,0.19630363583564758,0.0046961125917732716,1.597333312034607,0.005003055091947317,12.0570068359375
1765752893.9856431,0.9987033009529114,-6.855634273961186e-05,-0.050904516130685806,0.0007004081271588802,-0.007857225835323334,0.20849134027957916,0.002836219035089016,1.5781097412109375,0.02448289282619953,11.962496757507324
1765752893.9872887,0.9987033009529114,-6.855634273961186e-05,-0.050904516130685806,0.0007004081271588802,-0.007857225835323334,0.20849134027957916,0.002836219035089016,1.5781097412109375,0.02448289282619953,11.962496757507324
1765752893.9879391,0.9987144470214844,-7.624194404343143e-05,-0.05068444088101387,0.0007023346843197942,-0.007422657683491707,0.22036424279212952,0.002322556683793664,1.0779303312301636,-0.39085474610328674,11.612274169921875
1765752893.988926,0.9987144470214844,-7.624194404343143e-05,-0.05068444088101387,0.0007023346843197942,-0.007422657683491707,0.22036424279212952,0.002322556683793664,1.0779303312301636,-0.39085474610328674,11.612274169921875
1765752893.9899907,0.9987260103225708,-9.134903666563332e-05,-0.050456419587135315,0.0007106673438102007,-0.014504306949675083,0.22832264006137848,0.009096916764974594,0.9910234808921814,-0.3047895133495331,11.527583122253418
1765752893.9915435,0.9987378716468811,-0.0001136875944212079,-0.050221025943756104,0.0007245289743877947,-0.021442323923110962,0.23570634424686432,0.014984166249632835,0.7877694964408875,-0.03281467407941818,11.096128463745117
1765752893.9921644,0.9987378716468811,-0.0001136875944212079,-0.050221025943756104,0.0007245289743877947,-0.021442323923110962,0.23570634424686432,0.014984166249632835,0.7877694964408875,-0.03281467407941818,11.096128463745117
1765752893.9944189,0.9987378716468811,-0.0001136875944212079,-0.050221025943756104,0.0007245289743877947,-0.021442323923110962,0.23570634424686432,0.014984166249632835,0.7877694964408875,-0.03281467407941818,11.096128463745117
1765752893.9944937,0.9987499117851257,-0.0001346496574115008,-0.049980878829956055,0.0007380084716714919,-0.020083293318748474,0.24046353995800018,0.014533831737935543,0.720691978931427,-0.01997149921953678,11.004851341247559
1765752893.9945438,0.9987499117851257,-0.0001346496574115008,-0.049980878829956055,0.0007380084716714919,-0.020083293318748474,0.24046353995800018,0.014533831737935543,0.720691978931427,-0.01997149921953678,11.004851341247559
1765752893.9956677,0.9987620711326599,-0.00015262495435308665,-0.049736492335796356,0.000750361243262887,-0.017153413966298103,0.24470184743404388,0.013259648345410824,0.5317478179931641,-0.05037454888224602,10.286266326904297
1765752893.9966018,0.9987620711326599,-0.00015262495435308665,-0.049736492335796356,0.000750361243262887,-0.017153413966298103,0.24470184743404388,0.013259648345410824,0.5317478179931641,-0.05037454888224602,10.286266326904297
1765752893.9978552,0.9987757205963135,-0.00016579736256971955,-0.04946138709783554,0.0007618644158355892,-0.012375463731586933,0.2754500210285187,0.012175820767879486,0.5424935817718506,-0.06944284588098526,10.194075584411621
1765752893.9988105,0.9987906813621521,-0.00017427909187972546,-0.04915834590792656,0.0007726376061327755,-0.00770514365285635,0.30341750383377075,0.011218339204788208,0.6023139953613281,-0.04716004058718681,10.071335792541504
1765752894.0006912,0.9987906813621521,-0.00017427909187972546,-0.04915834590792656,0.0007726376061327755,-0.00770514365285635,0.30341750383377075,0.011218339204788208,0.6023139953613281,-0.04716004058718681,10.071335792541504
1765752894.001103,0.9987906813621521,-0.00017427909187972546,-0.04915834590792656,0.0007726376061327755,-0.00770514365285635,0.30341750383377075,0.011218339204788208,0.6023139953613281,-0.04716004058718681,10.071335792541504
1765752894.002483,0.9988066554069519,-0.00017987210594583303,-0.048832252621650696,0.0007827388471923769,-0.004834949038922787,0.32648736238479614,0.010408473201096058,0.8424683809280396,-0.011707117781043053,10.558935165405273
1765752894.0031352,0.9988066554069519,-0.00017987210594583303,-0.048832252621650696,0.0007827388471923769,-0.004834949038922787,0.32648736238479614,0.010408473201096058,0.8424683809280396,-0.011707117781043053,10.558935165405273
1765752894.0050254,0.9988218545913696,-0.00018490551155991852,-0.04852040857076645,0.000792102247942239,-0.0043233358301222324,0.31221261620521545,0.00964221078902483,0.8377306461334229,0.01590931974351406,10.422127723693848
1765752894.0054355,0.9988218545913696,-0.00018490551155991852,-0.04852040857076645,0.000792102247942239,-0.0043233358301222324,0.31221261620521545,0.00964221078902483,0.8377306461334229,0.01590931974351406,10.422127723693848
1765752894.005513,0.9988363981246948,-0.0001906135439639911,-0.04822004958987236,0.0008010160527192056,-0.005028209649026394,0.3007134795188904,0.00922431144863367,0.7966206073760986,0.019175395369529724,10.489051818847656
1765752894.006897,0.998850405216217,-0.00019731069914996624,-0.047928281128406525,0.0008096373057924211,-0.006037259474396706,0.29210957884788513,0.0089785261079669,0.7791301608085632,0.014801586046814919,10.498824119567871
1765752894.0075817,0.998850405216217,-0.00019731069914996624,-0.047928281128406525,0.0008096373057924211,-0.006037259474396706,0.29210957884788513,0.0089785261079669,0.7791301608085632,0.014801586046814919,10.498824119567871
1765752894.0090864,0.998850405216217,-0.00019731069914996624,-0.047928281128406525,0.0008096373057924211,-0.006037259474396706,0.29210957884788513,0.0089785261079669,0.7791301608085632,0.014801586046814919,10.498824119567871
1765752894.0097682,0.9988640546798706,-0.0002048741589533165,-0.04764281585812569,0.0008180495351552963,-0.006917755585163832,0.2857986390590668,0.008810312487185001,0.7070270776748657,0.012116839177906513,10.60499382019043
1765752894.0112734,0.9988640546798706,-0.0002048741589533165,-0.04764281585812569,0.0008180495351552963,-0.006917755585163832,0.2857986390590668,0.008810312487185001,0.7070270776748657,0.012116839177906513,10.60499382019043
1765752894.0119967,0.9988774657249451,-0.00021322228712961078,-0.04736164212226868,0.000826300703920424,-0.007712791208177805,0.2814933657646179,0.008686214685440063,0.5504581332206726,0.011792698875069618,10.238256454467773
1765752894.013508,0.9988774657249451,-0.00021322228712961078,-0.04736164212226868,0.000826300703920424,-0.007712791208177805,0.2814933657646179,0.008686214685440063,0.5504581332206726,0.011792698875069618,10.238256454467773
1765752894.014165,0.9988916516304016,-0.00022257752425502986,-0.04706035926938057,0.0008342952933162451,-0.008714109659194946,0.30162718892097473,0.008481199853122234,0.5551027059555054,0.012979871593415737,10.25267219543457
1765752894.0157685,0.9989067316055298,-0.00023299836902879179,-0.04673954099416733,0.000842076085973531,-0.009772124700248241,0.3211778998374939,0.008321378380060196,0.6331610083580017,0.01604965515434742,10.096295356750488
1765752894.0167284,0.9989067316055298,-0.00023299836902879179,-0.04673954099416733,0.000842076085973531,-0.009772124700248241,0.3211778998374939,0.008321378380060196,0.6331610083580017,0.01604965515434742,10.096295356750488
1765752894.0167851,0.9989067316055298,-0.00023299836902879179,-0.04673954099416733,0.000842076085973531,-0.009772124700248241,0.3211778998374939,0.008321378380060196,0.6331610083580017,0.01604965515434742,10.096295356750488
1765752894.0179133,0.9989224076271057,-0.00024455011589452624,-0.046402689069509506,0.0008496820228174329,-0.010896292515099049,0.33722513914108276,0.008202853612601757,0.6750518083572388,0.019624223932623863,9.996358871459961
1765752894.0189383,0.9989224076271057,-0.00024455011589452624,-0.046402689069509506,0.0008496820228174329,-0.010896292515099049,0.33722513914108276,0.008202853612601757,0.6750518083572388,0.019624223932623863,9.996358871459961
1765752894.0200045,0.9989385604858398,-0.0002573361271061003,-0.04605314880609512,0.0008571363869123161,-0.012125399895012379,0.34992384910583496,0.008111388422548771,0.8174037337303162,0.01884382590651512,10.380467414855957
1765752894.0208619,0.9989385604858398,-0.0002573361271061003,-0.04605314880609512,0.0008571363869123161,-0.012125399895012379,0.34992384910583496,0.008111388422548771,0.8174037337303162,0.01884382590651512,10.380467414855957
1765752894.0224042,0.9989538192749023,-0.00027078285347670317,-0.045721136033535004,0.0008646961068734527,-0.012795789167284966,0.3323691189289093,0.008243306539952755,0.7792460918426514,0.006334294099360704,10.257912635803223
1765752894.0230265,0.9989683032035828,-0.00028445885982364416,-0.04540334641933441,0.0008723267819732428,-0.013034110888838768,0.31812942028045654,0.008321521803736687,0.7095944285392761,0.005119141656905413,10.298579216003418
1765752894.0245702,0.9989683032035828,-0.00028445885982364416,-0.04540334641933441,0.0008723267819732428,-0.013034110888838768,0.31812942028045654,0.008321521803736687,0.7095944285392761,0.005119141656905413,10.298579216003418
1765752894.0252144,0.9989683032035828,-0.00028445885982364416,-0.04540334641933441,0.0008723267819732428,-0.013034110888838768,0.31812942028045654,0.008321521803736687,0.7095944285392761,0.005119141656905413,10.298579216003418
1765752894.0265536,0.9989821910858154,-0.00029838085174560547,-0.04509661719202995,0.0008800189825706184,-0.013286869041621685,0.3070552349090576,0.008391499519348145,0.5621449947357178,0.004526784643530846,10.037529945373535
1765752894.0275493,0.9989964962005615,-0.0003128093376290053,-0.04477863758802414,0.0008875936036929488,-0.013788115233182907,0.31830912828445435,0.008299860171973705,0.5399612784385681,0.001558945281431079,10.09387493133545
1765752894.028855,0.9989964962005615,-0.0003128093376290053,-0.04477863758802414,0.0008875936036929488,-0.013788115233182907,0.31830912828445435,0.008299860171973705,0.5399612784385681,0.001558945281431079,10.09387493133545
1765752894.0297298,0.999011218547821,-0.0003276322386227548,-0.044448889791965485,0.0008950390038080513,-0.014177326112985611,0.33008742332458496,0.008191762492060661,0.5611981749534607,-0.0010114316828548908,10.063016891479492
1765752894.0309916,0.999011218547821,-0.0003276322386227548,-0.044448889791965485,0.0008950390038080513,-0.014177326112985611,0.33008742332458496,0.008191762492060661,0.5611981749534607,-0.0010114316828548908,10.063016891479492
1765752894.031926,0.9990262389183044,-0.0003426720213610679,-0.04410934820771217,0.0009023568709380925,-0.014390816912055016,0.33988475799560547,0.008076941594481468,0.586679995059967,-0.0021730782464146614,10.017749786376953
1765752894.033145,0.9990414977073669,-0.00035781896440312266,-0.043762173503637314,0.0009095524437725544,-0.014496317133307457,0.3475220799446106,0.007961866445839405,0.6464541554450989,-0.0021143611520528793,9.912261962890625
1765752894.034171,0.9990414977073669,-0.00035781896440312266,-0.043762173503637314,0.0009095524437725544,-0.014496317133307457,0.3475220799446106,0.007961866445839405,0.6464541554450989,-0.0021143611520528793,9.912261962890625
1765752894.0357087,0.9990414977073669,-0.00035781896440312266,-0.043762173503637314,0.0009095524437725544,-0.014496317133307457,0.3475220799446106,0.007961866445839405,0.6464541554450989,-0.0021143611520528793,9.912261962890625
1765752894.036306,0.999056875705719,-0.0003730189928319305,-0.04340936616063118,0.0009166387608274817,-0.014548923820257187,0.353153795003891,0.007856986485421658,0.6247112154960632,-0.0021064658649265766,9.977222442626953
1765752894.0376089,0.9990723133087158,-0.0003882849123328924,-0.04305208846926689,0.0009236144833266735,-0.014615467749536037,0.3576210141181946,0.0077509707771241665,0.6974477171897888,-0.002626454923301935,10.332086563110352
1765752894.0386398,0.9990723133087158,-0.0003882849123328924,-0.04305208846926689,0.0009236144833266735,-0.014615467749536037,0.3576210141181946,0.0077509707771241665,0.6974477171897888,-0.002626454923301935,10.332086563110352
1765752894.0401912,0.9990867972373962,-0.00040326188900507987,-0.04271415248513222,0.000930633454117924,-0.014343136921525002,0.3382565677165985,0.007775025442242622,0.7083237171173096,-0.002986700041219592,10.190624237060547
1765752894.0407808,0.9990867972373962,-0.00040326188900507987,-0.04271415248513222,0.000930633454117924,-0.014343136921525002,0.3382565677165985,0.007775025442242622,0.7083237171173096,-0.002986700041219592,10.190624237060547
1765752894.041968,0.9991005659103394,-0.00041797253652475774,-0.04239172488451004,0.0009376622620038688,-0.01409140508621931,0.32273074984550476,0.007768005598336458,0.6004362106323242,-0.0017097544623538852,9.993128776550293
1765752894.042895,0.9991143345832825,-0.0004327804781496525,-0.0420648418366909,0.0009445562609471381,-0.014190096408128738,0.3271869719028473,0.007639208342880011,0.5616915822029114,-0.002409159205853939,10.071002006530762
1765752894.0441418,0.9991143345832825,-0.0004327804781496525,-0.0420648418366909,0.0009445562609471381,-0.014190096408128738,0.3271869719028473,0.007639208342880011,0.5616915822029114,-0.002409159205853939,10.071002006530762
1765752894.0450623,0.9991143345832825,-0.0004327804781496525,-0.0420648418366909,0.0009445562609471381,-0.014190096408128738,0.3271869719028473,0.007639208342880011,0.5616915822029114,-0.002409159205853939,10.071002006530762
1765752894.0470204,0.9991282820701599,-0.0004477406619116664,-0.04173227772116661,0.000951310561504215,-0.014342648908495903,0.33286476135253906,0.007508419454097748,0.558394193649292,-0.004210952203720808,10.064715385437012
1765752894.0477018,0.9991282820701599,-0.0004477406619116664,-0.04173227772116661,0.000951310561504215,-0.014342648908495903,0.33286476135253906,0.007508419454097748,0.558394193649292,-0.004210952203720808,10.064715385437012
1765752894.0477443,0.9991422891616821,-0.00046276318607851863,-0.0413951613008976,0.0009579341858625412,-0.01440604217350483,0.33741843700408936,0.007382354233413935,0.5615299940109253,-0.006273063365370035,10.039165496826172
1765752894.0485928,0.9991422891616821,-0.00046276318607851863,-0.0413951613008976,0.0009579341858625412,-0.01440604217350483,0.33741843700408936,0.007382354233413935,0.5615299940109253,-0.006273063365370035,10.039165496826172
1765752894.0494823,0.9991562962532043,-0.0004777272988576442,-0.041054923087358475,0.0009644370875321329,-0.014349673874676228,0.34053778648376465,0.007260803133249283,0.5651225447654724,-0.007983553223311901,10.023723602294922
1765752894.0508018,0.9991562962532043,-0.0004777272988576442,-0.041054923087358475,0.0009644370875321329,-0.014349673874676228,0.34053778648376465,0.007260803133249283,0.5651225447654724,-0.007983553223311901,10.023723602294922
1765752894.0516682,0.9991703033447266,-0.00049253657925874,-0.04071278125047684,0.0009708269499242306,-0.014197821728885174,0.34244003891944885,0.007142404094338417,0.5682579278945923,-0.009216910228133202,10.023640632629395
1765752894.0530434,0.9991841912269592,-0.0005071321502327919,-0.04036964848637581,0.0009771086042746902,-0.013987704180181026,0.3434242606163025,0.007026158273220062,0.6106910109519958,-0.010028287768363953,9.957939147949219
1765752894.0539198,0.9991841912269592,-0.0005071321502327919,-0.04036964848637581,0.0009771086042746902,-0.013987704180181026,0.3434242606163025,0.007026158273220062,0.6106910109519958,-0.010028287768363953,9.957939147949219
1765752894.0555618,0.9991841912269592,-0.0005071321502327919,-0.04036964848637581,0.0009771086042746902,-0.013987704180181026,0.3434242606163025,0.007026158273220062,0.6106910109519958,-0.010028287768363953,9.957939147949219
1765752894.056157,0.9991980195045471,-0.0005214699194766581,-0.04002641141414642,0.0009832907235249877,-0.013734121806919575,0.34352678060531616,0.006916498299688101,0.5702258348464966,-0.01071255560964346,10.05097770690918
1765752894.05742,0.9991980195045471,-0.0005214699194766581,-0.04002641141414642,0.0009832907235249877,-0.013734121806919575,0.34352678060531616,0.006916498299688101,0.5702258348464966,-0.01071255560964346,10.05097770690918
1765752894.0583222,0.9992116689682007,-0.000535552273504436,-0.03968341276049614,0.0009893691167235374,-0.013483409769833088,0.343280166387558,0.0068026259541511536,0.5568759441375732,-0.011113687418401241,10.072497367858887
1765752894.0596569,0.9992251992225647,-0.0005493787466548383,-0.03934110328555107,0.0009953439002856612,-0.013232532888650894,0.34258610010147095,0.00668872706592083,0.5509148836135864,-0.01165841706097126,10.090811729431152
1765752894.0605948,0.9992385506629944,-0.00056294328533113,-0.03899991139769554,0.0010012163547798991,-0.012976068072021008,0.34146422147750854,0.006575676146894693,0.5874012112617493,-0.01224841084331274,10.032590866088867
1765752894.061847,0.9992385506629944,-0.00056294328533113,-0.03899991139769554,0.0010012163547798991,-0.012976068072021008,0.34146422147750854,0.006575676146894693,0.5874012112617493,-0.01224841084331274,10.032590866088867
1765752894.0627701,0.9992385506629944,-0.00056294328533113,-0.03899991139769554,0.0010012163547798991,-0.012976068072021008,0.34146422147750854,0.006575676146894693,0.5874012112617493,-0.01224841084331274,10.032590866088867
1765752894.063973,0.9992517232894897,-0.000576223072130233,-0.038660403341054916,0.0010069929994642735,-0.012697030790150166,0.33977314829826355,0.006468052044510841,0.5822041630744934,-0.012837485410273075,10.051071166992188
1765752894.0649252,0.9992517232894897,-0.000576223072130233,-0.038660403341054916,0.0010069929994642735,-0.012697030790150166,0.33977314829826355,0.006468052044510841,0.5822041630744934,-0.012837485410273075,10.051071166992188
1765752894.066136,0.9992647171020508,-0.0005892097833566368,-0.038322921842336655,0.0010126752313226461,-0.012410012073814869,0.3377397060394287,0.006361440289765596,0.5655252933502197,-0.013204926624894142,10.07192611694336
1765752894.067086,0.9992647171020508,-0.0005892097833566368,-0.038322921842336655,0.0010126752313226461,-0.012410012073814869,0.3377397060394287,0.006361440289765596,0.5655252933502197,-0.013204926624894142,10.07192611694336
1765752894.0683377,0.9992775321006775,-0.0006019046413712204,-0.03798776492476463,0.0010182635160163045,-0.012124411761760712,0.3354116380214691,0.006255268584936857,0.547523021697998,-0.013510228134691715,10.092172622680664
1765752894.0692687,0.9992775321006775,-0.0006019046413712204,-0.03798776492476463,0.0010182635160163045,-0.012124411761760712,0.3354116380214691,0.006255268584936857,0.547523021697998,-0.013510228134691715,10.092172622680664
1765752894.0709023,0.9992900490760803,-0.0006143121863715351,-0.03765520080924034,0.0010237585520371795,-0.011843634769320488,0.33281055092811584,0.006149786990135908,0.5314080715179443,-0.013851539231836796,10.113211631774902
1765752894.0715523,0.9993024468421936,-0.0006264359108172357,-0.03732547163963318,0.0010291613871231675,-0.011566506698727608,0.32996952533721924,0.006045409012585878,0.5174793004989624,-0.014246602542698383,10.135127067565918
1765752894.072821,0.9993024468421936,-0.0006264359108172357,-0.03732547163963318,0.0010291613871231675,-0.011566506698727608,0.32996952533721924,0.006045409012585878,0.5174793004989624,-0.014246602542698383,10.135127067565918
1765752894.0737185,0.999314546585083,-0.0006382766296155751,-0.03699878603219986,0.0010344735346734524,-0.011290393769741058,0.32692137360572815,0.005942496005445719,0.5050022006034851,-0.014662904664874077,10.157076835632324
1765752894.075228,0.999314546585083,-0.0006382766296155751,-0.03699878603219986,0.0010344735346734524,-0.011290393769741058,0.32692137360572815,0.005942496005445719,0.5050022006034851,-0.014662904664874077,10.157076835632324
1765752894.075906,0.9993264675140381,-0.000649833760689944,-0.03667532280087471,0.0010396966245025396,-0.011013745330274105,0.32368794083595276,0.005841315723955631,0.49320316314697266,-0.015059283934533596,10.178214073181152
1765752894.0772073,0.9993264675140381,-0.000649833760689944,-0.03667532280087471,0.0010396966245025396,-0.011013745330274105,0.32368794083595276,0.005841315723955631,0.49320316314697266,-0.015059283934533596,10.178214073181152
1765752894.078117,0.9993381500244141,-0.0006611069547943771,-0.036355264484882355,0.001044832868501544,-0.01073683612048626,0.32028016448020935,0.005742073990404606,0.4816195070743561,-0.015412592329084873,10.19813060760498
1765752894.0796409,0.9993381500244141,-0.0006611069547943771,-0.036355264484882355,0.001044832868501544,-0.01073683612048626,0.32028016448020935,0.005742073990404606,0.4816195070743561,-0.015412592329084873,10.19813060760498
1765752894.0802855,0.9993495941162109,-0.0006720972014591098,-0.036038778722286224,0.0010498843621462584,-0.010461091063916683,0.3167034089565277,0.005644939374178648,0.4701083302497864,-0.0157220009714365,10.216827392578125
1765752894.0818014,0.9993608593940735,-0.0006828071200288832,-0.035726021975278854,0.0010548533173277974,-0.010188022628426552,0.31296244263648987,0.00555005669593811,0.5024388432502747,-0.016029488295316696,10.156368255615234
1765752894.08249,0.9993608593940735,-0.0006828071200288832,-0.035726021975278854,0.0010548533173277974,-0.010188022628426552,0.31296244263648987,0.00555005669593811,0.5024388432502747,-0.016029488295316696,10.156368255615234
1765752894.083735,0.9993718266487122,-0.0006932285614311695,-0.035417340695858,0.0010597448563203216,-0.00990690104663372,0.3088841140270233,0.005459940526634455,0.44836297631263733,-0.016238417476415634,10.250993728637695
1765752894.0846562,0.9993718266487122,-0.0006932285614311695,-0.035417340695858,0.0010597448563203216,-0.00990690104663372,0.3088841140270233,0.005459940526634455,0.44836297631263733,-0.016238417476415634,10.250993728637695
1765752894.0859025,0.9993825554847717,-0.0007033777073957026,-0.03511269763112068,0.0010645583970472217,-0.00964196678251028,0.3048400580883026,0.005369812715798616,0.4714152216911316,-0.01638946123421192,10.19201946258545
1765752894.0868692,0.9993825554847717,-0.0007033777073957026,-0.03511269763112068,0.0010645583970472217,-0.00964196678251028,0.3048400580883026,0.005369812715798616,0.4714152216911316,-0.01638946123421192,10.19201946258545
1765752894.0889335,0.9993930459022522,-0.0007132531027309597,-0.034812383353710175,0.0010692983632907271,-0.009375796653330326,0.3005041778087616,0.005283819977194071,0.46181008219718933,-0.016626941040158272,10.207234382629395
1765752894.0894012,0.9993930459022522,-0.0007132531027309597,-0.034812383353710175,0.0010692983632907271,-0.009375796653330326,0.3005041778087616,0.005283819977194071,0.46181008219718933,-0.016626941040158272,10.207234382629395
1765752894.0902596,0.9994032979011536,-0.0007228589965961874,-0.03451652452349663,0.0010739668505266309,-0.009113878011703491,0.2960430979728699,0.005200209561735392,0.44493013620376587,-0.016793614253401756,10.226031303405762
1765752894.0913863,0.9994133114814758,-0.0007322024903260171,-0.03422520309686661,0.0010785660706460476,-0.008859033696353436,0.29150059819221497,0.005118776578456163,0.44493013620376587,-0.016793614253401756,10.226031303405762
1765752894.0923994,0.9994133114814758,-0.0007322024903260171,-0.03422520309686661,0.0010785660706460476,-0.008859033696353436,0.29150059819221497,0.005118776578456163,0.4728891849517822,-0.017005061730742455,10.165900230407715
1765752894.0935903,0.9994230270385742,-0.0007412790437228978,-0.03393866866827011,0.0010830999817699194,-0.008599911816418171,0.2867056429386139,0.005041162483394146,0.4142575263977051,-0.01714300736784935,10.261650085449219
1765752894.0946252,0.9994230270385742,-0.0007412790437228978,-0.03393866866827011,0.0010830999817699194,-0.008599911816418171,0.2867056429386139,0.005041162483394146,0.4142575263977051,-0.01714300736784935,10.261650085449219
1765752894.0957103,0.9994325637817383,-0.0007501060026697814,-0.033656809478998184,0.0010875687003135681,-0.00835785735398531,0.2820267677307129,0.004964292515069246,0.3910225033760071,-0.017246941104531288,10.282450675964355
1765752894.0972075,0.9994325637817383,-0.0007501060026697814,-0.033656809478998184,0.0010875687003135681,-0.00835785735398531,0.2820267677307129,0.004964292515069246,0.3910225033760071,-0.017246941104531288,10.282450675964355
1765752894.097863,0.9994418621063232,-0.0007586933788843453,-0.033379651606082916,0.0010919739725068212,-0.008125833235681057,0.2773187458515167,0.004889620468020439,0.3795813024044037,-0.01749948039650917,10.299246788024902
1765752894.0990968,0.9994509220123291,-0.000767044082749635,-0.033107250928878784,0.0010963183594867587,-0.0078967260196805,0.272555947303772,0.004817502573132515,0.4173210859298706,-0.017847273498773575,10.236740112304688
1765752894.1000392,0.9994509220123291,-0.000767044082749635,-0.033107250928878784,0.0010963183594867587,-0.0078967260196805,0.272555947303772,0.004817502573132515,0.4173210859298706,-0.017847273498773575,10.236740112304688
1765752894.1015427,0.9994509220123291,-0.000767044082749635,-0.033107250928878784,0.0010963183594867587,-0.0078967260196805,0.272555947303772,0.004817502573132515,0.4173210859298706,-0.017847273498773575,10.236740112304688
1765752894.1022162,0.9994597434997559,-0.0007751467637717724,-0.03283984214067459,0.0011006059357896447,-0.007656362373381853,0.267560750246048,0.004748921375721693,0.3650543987751007,-0.018086828291416168,10.330462455749512
1765752894.1037073,0.9994597434997559,-0.0007751467637717724,-0.03283984214067459,0.0011006059357896447,-0.007656362373381853,0.267560750246048,0.004748921375721693,0.3650543987751007,-0.018086828291416168,10.330462455749512
1765752894.1044018,0.9994683265686035,-0.0007830126560293138,-0.03257729485630989,0.0011048378655686975,-0.007427050732076168,0.2626934349536896,0.004682047292590141,0.3467137813568115,-0.018218232318758965,10.347508430480957
1765752894.1058872,0.9994766712188721,-0.0007906497339718044,-0.03231963515281677,0.0011090162442997098,-0.007205673027783632,0.25779786705970764,0.0046175201423466206,0.3384324610233307,-0.01843602955341339,10.35966682434082
1765752894.1066442,0.9994766712188721,-0.0007906497339718044,-0.03231963515281677,0.0011090162442997098,-0.007205673027783632,0.25779786705970764,0.0046175201423466206,0.3384324610233307,-0.01843602955341339,10.35966682434082
1765752894.1078813,0.9994847774505615,-0.0007980616064742208,-0.03206693381071091,0.001113143633119762,-0.006987901870161295,0.25283920764923096,0.004555462393909693,0.3791534900665283,-0.018719075247645378,10.291848182678223
1765752894.1087947,0.9994847774505615,-0.0007980616064742208,-0.03206693381071091,0.001113143633119762,-0.006987901870161295,0.25283920764923096,0.004555462393909693,0.3791534900665283,-0.018719075247645378,10.291848182678223
1765752894.1104243,0.9994927048683167,-0.0008052388438954949,-0.0318194255232811,0.0011172229424118996,-0.0067609017714858055,0.24763748049736023,0.0044961716048419476,0.3745039999485016,-0.018951131030917168,10.302286148071289
1765752894.111023,0.9994927048683167,-0.0008052388438954949,-0.0318194255232811,0.0011172229424118996,-0.0067609017714858055,0.24763748049736023,0.0044961716048419476,0.3745039999485016,-0.018951131030917168,10.302286148071289
1765752894.112227,0.9995003342628479,-0.0008121829014271498,-0.03157716989517212,0.0011212567333132029,-0.006535395979881287,0.24237976968288422,0.0044391583651304245,0.35894280672073364,-0.01904342696070671,10.315422058105469
1765752894.1131537,0.9995003342628479,-0.0008121829014271498,-0.03157716989517212,0.0011212567333132029,-0.006535395979881287,0.24237976968288422,0.0044391583651304245,0.35894280672073364,-0.01904342696070671,10.315422058105469
1765752894.1147,0.9995077848434448,-0.0008189023355953395,-0.03134018927812576,0.0011252466356381774,-0.006318274885416031,0.23710301518440247,0.004384180996567011,0.34301164746284485,-0.019120343029499054,10.327956199645996
1765752894.1158218,0.9995150566101074,-0.0008254064014181495,-0.031108492985367775,0.0011291942792013288,-0.00611053267493844,0.23181341588497162,0.004331172443926334,0.3295678496360779,-0.019246099516749382,10.340688705444336
1765752894.1171553,0.9995150566101074,-0.0008254064014181495,-0.031108492985367775,0.0011291942792013288,-0.00611053267493844,0.23181341588497162,0.004331172443926334,0.3295678496360779,-0.019246099516749382,10.340688705444336
1765752894.11766,0.9995220303535461,-0.000831702200230211,-0.030882084742188454,0.0011331015266478062,-0.00590977119281888,0.22652089595794678,0.00428016996011138,0.3186841607093811,-0.01942562684416771,10.353538513183594
1765752894.1186688,0.9995220303535461,-0.000831702200230211,-0.030882084742188454,0.0011331015266478062,-0.00590977119281888,0.22652089595794678,0.00428016996011138,0.3186841607093811,-0.01942562684416771,10.353538513183594
1765752894.1196983,0.9995288252830505,-0.00083779392298311,-0.03066095896065235,0.0011369702406227589,-0.005713070742785931,0.22123372554779053,0.004231205675750971,0.309626966714859,-0.019634705036878586,10.365937232971191
1765752894.1207788,0.9995354413986206,-0.0008436837233603001,-0.03044510819017887,0.001140802400186658,-0.005518625490367413,0.21595393121242523,0.004184264689683914,0.309626966714859,-0.019634705036878586,10.365937232971191
1765752894.1218617,0.9995354413986206,-0.0008436837233603001,-0.03044510819017887,0.001140802400186658,-0.005518625490367413,0.21595393121242523,0.004184264689683914,0.3493242561817169,-0.019857192412018776,10.297037124633789
1765752894.12355,0.9995354413986206,-0.0008436837233603001,-0.03044510819017887,0.001140802400186658,-0.005518625490367413,0.21595393121242523,0.004184264689683914,0.3493242561817169,-0.019857192412018776,10.297037124633789
1765752894.1243105,0.9995418190956116,-0.0008493632194586098,-0.030234718695282936,0.0011445997515693307,-0.005315837450325489,0.21048815548419952,0.004138736054301262,0.2952691316604614,-0.02003788948059082,10.387279510498047
1765752894.1258118,0.9995418190956116,-0.0008493632194586098,-0.030234718695282936,0.0011445997515693307,-0.005315837450325489,0.21048815548419952,0.004138736054301262,0.2952691316604614,-0.02003788948059082,10.387279510498047
1765752894.1263585,0.9995479583740234,-0.0008548451005481184,-0.030029604211449623,0.0011483642738312483,-0.005125526338815689,0.2052111029624939,0.004095662850886583,0.27799907326698303,-0.02012612670660019,10.401094436645508
1765752894.1278715,0.9995539784431458,-0.0008601376903243363,-0.02982972003519535,0.0011520973639562726,-0.00494346022605896,0.19997650384902954,0.0040543535724282265,0.2717384696006775,-0.020305389538407326,10.409926414489746
1765752894.1285973,0.999559760093689,-0.000865244073793292,-0.02963506616652012,0.0011558006517589092,-0.004764433950185776,0.1947418451309204,0.004014723934233189,0.31657394766807556,-0.020512036979198456,10.336803436279297
1765752894.129787,0.999559760093689,-0.000865244073793292,-0.02963506616652012,0.0011558006517589092,-0.004764433950185776,0.1947418451309204,0.004014723934233189,0.31657394766807556,-0.020512036979198456,10.336803436279297
1765752894.130741,0.999559760093689,-0.000865244073793292,-0.02963506616652012,0.0011558006517589092,-0.004764433950185776,0.1947418451309204,0.004014723934233189,0.31657394766807556,-0.020512036979198456,10.336803436279297
1765752894.1322525,0.9995653033256531,-0.0008701547631062567,-0.029445845633745193,0.0011594751849770546,-0.004576085601001978,0.18930482864379883,0.003975807689130306,0.31427013874053955,-0.020710179582238197,10.343332290649414
1765752894.133113,0.9995653033256531,-0.0008701547631062567,-0.029445845633745193,0.0011594751849770546,-0.004576085601001978,0.18930482864379883,0.003975807689130306,0.31427013874053955,-0.020710179582238197,10.343332290649414
1765752894.1339734,0.9995707273483276,-0.0008748704567551613,-0.02926206961274147,0.001163122826255858,-0.004388469271361828,0.18385784327983856,0.0039384751580655575,0.3011860251426697,-0.020789429545402527,10.353525161743164
1765752894.1351204,0.9995707273483276,-0.0008748704567551613,-0.02926206961274147,0.001163122826255858,-0.004388469271361828,0.18385784327983856,0.0039384751580655575,0.3011860251426697,-0.020789429545402527,10.353525161743164
1765752894.1362028,0.9995759129524231,-0.0008793981978669763,-0.029083698987960815,0.001166744390502572,-0.004207783378660679,0.17844870686531067,0.00390258920378983,0.28788769245147705,-0.02084934152662754,10.363322257995605
1765752894.137291,0.9995759129524231,-0.0008793981978669763,-0.029083698987960815,0.001166744390502572,-0.004207783378660679,0.17844870686531067,0.00390258920378983,0.28788769245147705,-0.02084934152662754,10.363322257995605
1765752894.1388037,0.999585747718811,-0.0008879195083864033,-0.028742995113134384,0.0011739142937585711,-0.0038681253790855408,0.16776487231254578,0.0038347719237208366,0.26838383078575134,-0.021067295223474503,10.382265090942383
1765752894.139511,0.999585747718811,-0.0008879195083864033,-0.028742995113134384,0.0011739142937585711,-0.0038681253790855408,0.16776487231254578,0.0038347719237208366,0.26838383078575134,-0.021067295223474503,10.382265090942383
1765752894.140747,0.999585747718811,-0.0008879195083864033,-0.028742995113134384,0.0011739142937585711,-0.0038681253790855408,0.16776487231254578,0.0038347719237208366,0.26838383078575134,-0.021067295223474503,10.382265090942383
1765752894.1416943,0.9995903968811035,-0.0008919232641346753,-0.028580570593476295,0.0011774648446589708,-0.003705201670527458,0.16249214112758636,0.0038028841372579336,0.2615087628364563,-0.021214691922068596,10.390912055969238
1765752894.1435144,0.9995903968811035,-0.0008919232641346753,-0.028580570593476295,0.0011774648446589708,-0.003705201670527458,0.16249214112758636,0.0038028841372579336,0.2615087628364563,-0.021214691922068596,10.390912055969238
1765752894.1444337,0.9995948672294617,-0.0008957594982348382,-0.028423374518752098,0.0011809939751401544,-0.0035447266418486834,0.15726183354854584,0.003772345371544361,0.2557368874549866,-0.02136484906077385,10.398665428161621
1765752894.145099,0.9995948672294617,-0.0008957594982348382,-0.028423374518752098,0.0011809939751401544,-0.0035447266418486834,0.15726183354854584,0.003772345371544361,0.2557368874549866,-0.02136484906077385,10.398665428161621
1765752894.1461496,0.9995991587638855,-0.0008994302479550242,-0.028271367773413658,0.0011845030821859837,-0.003386165015399456,0.152068629860878,0.0037430913653224707,0.2507029175758362,-0.021506542339920998,10.405472755432129
1765752894.1471882,0.9995991587638855,-0.0008994302479550242,-0.028271367773413658,0.0011845030821859837,-0.003386165015399456,0.152068629860878,0.0037430913653224707,0.2507029175758362,-0.021506542339920998,10.405472755432129
1765752894.1482897,0.9996033310890198,-0.0009029375505633652,-0.02812451869249344,0.0011879932135343552,-0.0032295682467520237,0.14690735936164856,0.0037150278221815825,0.24620427191257477,-0.02163557894527912,10.411408424377441
1765752894.1493752,0.999607264995575,-0.0009062836761586368,-0.02798280119895935,0.0011914653005078435,-0.003075206885114312,0.14177429676055908,0.003688054159283638,0.2915985584259033,-0.02170899324119091,10.333261489868164
1765752894.1505373,0.999607264995575,-0.0009062836761586368,-0.02798280119895935,0.0011914653005078435,-0.003075206885114312,0.14177429676055908,0.003688054159283638,0.2915985584259033,-0.02170899324119091,10.333261489868164
1765752894.1520476,0.9996110796928406,-0.0009094614069908857,-0.027846405282616615,0.0011949189938604832,-0.00291385012678802,0.13644877076148987,0.0036604227498173714,0.2392212599515915,-0.021856868639588356,10.420282363891602
1765752894.15269,0.9996110796928406,-0.0009094614069908857,-0.027846405282616615,0.0011949189938604832,-0.00291385012678802,0.13644877076148987,0.0036604227498173714,0.2392212599515915,-0.021856868639588356,10.420282363891602
1765752894.1540544,0.9996147155761719,-0.0009124832577072084,-0.02771509438753128,0.0011983566218987107,-0.0027647248934954405,0.13136158883571625,0.0036354782059788704,0.2753923237323761,-0.02182522788643837,10.346137046813965
1765752894.1551778,0.9996147155761719,-0.0009124832577072084,-0.02771509438753128,0.0011983566218987107,-0.0027647248934954405,0.13136158883571625,0.0036354782059788704,0.2753923237323761,-0.02182522788643837,10.346137046813965
1765752894.1567297,0.9996182322502136,-0.0009153468417935073,-0.02758900262415409,0.0012017773697152734,-0.0026133947540074587,0.12614063918590546,0.0036096074618399143,0.273403137922287,-0.02191341295838356,10.348840713500977
1765752894.1572394,0.9996215105056763,-0.0009180549532175064,-0.027468105778098106,0.0012051818193867803,-0.0024648397229611874,0.12094266712665558,0.0035845711827278137,0.2636898458003998,-0.021951895207166672,10.356566429138184
1765752894.158294,0.9996215105056763,-0.0009180549532175064,-0.027468105778098106,0.0012051818193867803,-0.0024648397229611874,0.12094266712665558,0.0035845711827278137,0.2636898458003998,-0.021951895207166672,10.356566429138184
1765752894.1594636,0.9996215105056763,-0.0009180549532175064,-0.027468105778098106,0.0012051818193867803,-0.0024648397229611874,0.12094266712665558,0.0035845711827278137,0.2636898458003998,-0.021951895207166672,10.356566429138184
1765752894.160701,0.9996247291564941,-0.0009206131799146533,-0.02735232561826706,0.0012085707858204842,-0.0023217133712023497,0.11582350730895996,0.003560437588021159,0.2542646825313568,-0.021984795108437538,10.36412239074707
1765752894.1615672,0.9996277093887329,-0.0009230268187820911,-0.027241576462984085,0.0012119448510929942,-0.0021838524844497442,0.11078845709562302,0.0035371147096157074,0.24671877920627594,-0.022032473236322403,10.370967864990234
1765752894.1631742,0.9996277093887329,-0.0009230268187820911,-0.027241576462984085,0.0012119448510929942,-0.0021838524844497442,0.11078845709562302,0.0035371147096157074,0.24671877920627594,-0.022032473236322403,10.370967864990234
1765752894.1637218,0.9996305704116821,-0.0009253002353943884,-0.027135785669088364,0.0012153045972809196,-0.0020501355174928904,0.10583092272281647,0.003514599520713091,0.24091258645057678,-0.02209397405385971,10.376975059509277
1765752894.1652656,0.9996305704116821,-0.0009253002353943884,-0.027135785669088364,0.0012153045972809196,-0.0020501355174928904,0.10583092272281647,0.003514599520713091,0.24091258645057678,-0.02209397405385971,10.376975059509277
1765752894.1658587,0.9996333122253418,-0.0009274364565499127,-0.027034878730773926,0.0012186507228761911,-0.0019195202039554715,0.10094232112169266,0.0034929027315229177,0.23640476167201996,-0.022160707041621208,10.382096290588379
1765752894.1671178,0.9996333122253418,-0.0009274364565499127,-0.027034878730773926,0.0012186507228761911,-0.0019195202039554715,0.10094232112169266,0.0034929027315229177,0.23640476167201996,-0.022160707041621208,10.382096290588379
1765752894.1680357,0.9996359348297119,-0.0009294381598010659,-0.026938797906041145,0.0012219838099554181,-0.0017913614865392447,0.09611443430185318,0.003471994772553444,0.23282219469547272,-0.02222451940178871,10.386348724365234
1765752894.1692927,0.9996359348297119,-0.0009294381598010659,-0.026938797906041145,0.0012219838099554181,-0.0017913614865392447,0.09611443430185318,0.003471994772553444,0.23282219469547272,-0.02222451940178871,10.386348724365234
1765752894.170527,0.9996383786201477,-0.0009313075570389628,-0.026847489178180695,0.0012253046734258533,-0.0016653818311169744,0.0913405641913414,0.003451804630458355,0.22991156578063965,-0.02228107489645481,10.389813423156738
1765752894.1705759,0.9996383786201477,-0.0009313075570389628,-0.026847489178180695,0.0012253046734258533,-0.0016653818311169744,0.0913405641913414,0.003451804630458355,0.22991156578063965,-0.02228107489645481,10.389813423156738
1765752894.171507,0.9996406435966492,-0.0009330466273240745,-0.026760904118418694,0.0012286135461181402,-0.0015413432847708464,0.08661562949419022,0.0034322324208915234,0.22752249240875244,-0.022329337894916534,10.392573356628418
1765752894.1724415,0.9996406435966492,-0.0009330466273240745,-0.026760904118418694,0.0012286135461181402,-0.0015413432847708464,0.08661562949419022,0.0034322324208915234,0.22752249240875244,-0.022329337894916534,10.392573356628418
1765752894.1739705,0.9996428489685059,-0.0009346570004709065,-0.02667899616062641,0.00123191112652421,-0.0014189105713739991,0.0819360762834549,0.0034131717402487993,0.27572232484817505,-0.022312551736831665,10.308197021484375
1765752894.1746256,0.9996448755264282,-0.0009361309348605573,-0.02660197578370571,0.0012351961340755224,-0.0012889563804492354,0.0770452469587326,0.0033926358446478844,0.2748049795627594,-0.02236340381205082,10.30860424041748
1765752894.176165,0.9996448755264282,-0.0009361309348605573,-0.02660197578370571,0.0012351961340755224,-0.0012889563804492354,0.0770452469587326,0.0033926358446478844,0.2748049795627594,-0.02236340381205082,10.30860424041748
1765752894.1768641,0.9996448755264282,-0.0009361309348605573,-0.02660197578370571,0.0012351961340755224,-0.0012889563804492354,0.0770452469587326,0.0033926358446478844,0.2748049795627594,-0.02236340381205082,10.30860424041748
1765752894.1784153,0.9996468424797058,-0.0009374695364385843,-0.026529813185334206,0.0012384691508486867,-0.0011601082514971495,0.07218648493289948,0.003372620325535536,0.2645213305950165,-0.02234918810427189,10.315683364868164
1765752894.1793299,0.9996468424797058,-0.0009374695364385843,-0.026529813185334206,0.0012384691508486867,-0.0011601082514971495,0.07218648493289948,0.003372620325535536,0.2645213305950165,-0.02234918810427189,10.315683364868164
1765752894.181018,0.9996485710144043,-0.0009386772871948779,-0.026462392881512642,0.0012417301768437028,-0.001035671797581017,0.06744223088026047,0.0033529496286064386,0.25476324558258057,-0.022342627868056297,10.322807312011719
1765752894.1814795,0.9996485710144043,-0.0009386772871948779,-0.026462392881512642,0.0012417301768437028,-0.001035671797581017,0.06744223088026047,0.0033529496286064386,0.25476324558258057,-0.022342627868056297,10.322807312011719
1765752894.1829827,0.999650239944458,-0.0009397584362886846,-0.02639959380030632,0.0012449793284758925,-0.0009152277489192784,0.06281895190477371,0.003333544358611107,0.24727392196655273,-0.02236734703183174,10.329039573669434
1765752894.1835167,0.9996517896652222,-0.0009407157194800675,-0.026341307908296585,0.0012482168385758996,-0.0007974703330546618,0.058304063975811005,0.003314519766718149,0.24185438454151154,-0.022417942062020302,10.334197998046875
1765752894.1850598,0.9996532201766968,-0.000941550824791193,-0.026287442073225975,0.0012514430563896894,-0.0006813096115365624,0.05388268828392029,0.0032959827221930027,0.28823867440223694,-0.022422373294830322,10.250410079956055
1765752894.1856883,0.9996532201766968,-0.000941550824791193,-0.026287442073225975,0.0012514430563896894,-0.0006813096115365624,0.05388268828392029,0.0032959827221930027,0.28823867440223694,-0.022422373294830322,10.250410079956055
1765752894.1872334,0.9996532201766968,-0.000941550824791193,-0.026287442073225975,0.0012514430563896894,-0.0006813096115365624,0.05388268828392029,0.0032959827221930027,0.28823867440223694,-0.022422373294830322,10.250410079956055
1765752894.1879184,0.9996544718742371,-0.0009422561852261424,-0.02623818628489971,0.0012546569341793656,-0.0005577582051046193,0.04927005246281624,0.003276076866313815,0.23582206666469574,-0.02255486696958542,10.340628623962402
1765752894.1891525,0.9996544718742371,-0.0009422561852261424,-0.02623818628489971,0.0012546569341793656,-0.0005577582051046193,0.04927005246281624,0.003276076866313815,0.23582206666469574,-0.02255486696958542,10.340628623962402
1765752894.1900978,0.9996556639671326,-0.0009428414632566273,-0.026193207129836082,0.0012578604510053992,-0.00044347025686874986,0.044993869960308075,0.0032586718443781137,0.22444432973861694,-0.022543778643012047,10.35093879699707
1765752894.1913497,0.9996556639671326,-0.0009428414632566273,-0.026193207129836082,0.0012578604510053992,-0.00044347025686874986,0.044993869960308075,0.0032586718443781137,0.22444432973861694,-0.022543778643012047,10.35093879699707
1765752894.1923015,0.9996567368507385,-0.0009433106170035899,-0.026152344420552254,0.0012610534904524684,-0.00033298160997219384,0.04087361693382263,0.003241426544263959,0.22333498299121857,-0.022593846544623375,10.353044509887695
1765752894.1938522,0.9996576905250549,-0.0009436645777896047,-0.0261155366897583,0.0012642362853512168,-0.00022324490419123322,0.03681701794266701,0.003224435728043318,0.22436366975307465,-0.022659938782453537,10.353438377380371
1765752894.1946433,0.9996585249900818,-0.0009439033456146717,-0.02608274668455124,0.001267409068532288,-0.00011355618335073814,0.03279929608106613,0.003207809291779995,0.27591007947921753,-0.02265867590904236,10.263561248779297
1765752894.1962247,0.9996585249900818,-0.0009439033456146717,-0.02608274668455124,0.001267409068532288,-0.00011355618335073814,0.03279929608106613,0.003207809291779995,0.27591007947921753,-0.02265867590904236,10.263561248779297
1765752894.1968808,0.9996585249900818,-0.0009439033456146717,-0.02608274668455124,0.001267409068532288,-0.00011355618335073814,0.03279929608106613,0.003207809291779995,0.27591007947921753,-0.02265867590904236,10.263561248779297
1765752894.1983979,0.9996592998504639,-0.000944018829613924,-0.026054225862026215,0.0012705707922577858,3.848459073196864e-06,0.028525980189442635,0.003189665265381336,0.27772775292396545,-0.022706568241119385,10.26185131072998
1765752894.1990068,0.9996592998504639,-0.000944018829613924,-0.026054225862026215,0.0012705707922577858,3.848459073196864e-06,0.028525980189442635,0.003189665265381336,0.27772775292396545,-0.022706568241119385,10.26185131072998
1765752894.2005064,0.9996598958969116,-0.0009440120193175972,-0.026029951870441437,0.0012737218057736754,0.00012035361578455195,0.024280618876218796,0.0031718588434159756,0.270283043384552,-0.022668661549687386,10.268122673034668
1765752894.2011359,0.9996598958969116,-0.0009440120193175972,-0.026029951870441437,0.0012737218057736754,0.00012035361578455195,0.024280618876218796,0.0031718588434159756,0.270283043384552,-0.022668661549687386,10.268122673034668
1765752894.2026644,0.9996604323387146,-0.0009438871056772768,-0.02600979246199131,0.0012768618762493134,0.00023273163242265582,0.02016250416636467,0.0031540682539343834,0.2630798816680908,-0.0226153377443552,10.274534225463867
1765752894.203322,0.9996604323387146,-0.0009438871056772768,-0.02600979246199131,0.0012768618762493134,0.00023273163242265582,0.02016250416636467,0.0031540682539343834,0.2630798816680908,-0.0226153377443552,10.274534225463867
1765752894.204832,0.9996611475944519,-0.0009433007217012346,-0.025981301441788673,0.0012831079075112939,0.0004449766129255295,0.012314536608755589,0.0031184412073343992,0.25417324900627136,-0.022546036168932915,10.283982276916504
1765752894.2055264,0.9996611475944519,-0.0009433007217012346,-0.025981301441788673,0.0012831079075112939,0.0004449766129255295,0.012314536608755589,0.0031184412073343992,0.25417324900627136,-0.022546036168932915,10.283982276916504
1765752894.2069817,0.9996611475944519,-0.0009433007217012346,-0.025981301441788673,0.0012831079075112939,0.0004449766129255295,0.012314536608755589,0.0031184412073343992,0.25417324900627136,-0.022546036168932915,10.283982276916504
1765752894.2077274,0.999661386013031,-0.0009428462362848222,-0.025972748175263405,0.0012862138682976365,0.0005461993860080838,0.008551624603569508,0.0031008641235530376,0.2519533634185791,-0.022526485845446587,10.287056922912598
1765752894.2089493,0.999661386013031,-0.0009428462362848222,-0.025972748175263405,0.0012862138682976365,0.0005461993860080838,0.008551624603569508,0.0031008641235530376,0.2519533634185791,-0.022526485845446587,10.287056922912598
1765752894.2099502,0.9996615052223206,-0.0009422877919860184,-0.02596786990761757,0.00128930842038244,0.0006450439686886966,0.004876246675848961,0.0030835357028990984,0.2507520914077759,-0.022508909925818443,10.289254188537598
1765752894.211521,0.9996615052223206,-0.0009422877919860184,-0.02596786990761757,0.00128930842038244,0.0006450439686886966,0.004876246675848961,0.0030835357028990984,0.2507520914077759,-0.022508909925818443,10.289254188537598
1765752894.212619,0.9996615052223206,-0.0009416273678652942,-0.025966590270400047,0.0012923919130116701,0.0007419595494866371,0.0012779292883351445,0.0030664419755339622,0.25032415986061096,-0.022488493472337723,10.290719032287598
1765752894.2138703,0.9996615052223206,-0.0009416273678652942,-0.025966590270400047,0.0012923919130116701,0.0007419595494866371,0.0012779292883351445,0.0030664419755339622,0.25032415986061096,-0.022488493472337723,10.290719032287598
1765752894.2144527,0.9996613264083862,-0.0009399999980814755,-0.02597486414015293,0.0012985244393348694,0.000937967502977699,-0.0060340226627886295,0.0030311604496091604,0.30176353454589844,-0.02239540033042431,10.198774337768555
1765752894.2159772,0.9996613264083862,-0.0009399999980814755,-0.02597486414015293,0.0012985244393348694,0.000937967502977699,-0.0060340226627886295,0.0030311604496091604,0.30176353454589844,-0.02239540033042431,10.198774337768555
1765752894.2166364,0.9996613264083862,-0.0009399999980814755,-0.02597486414015293,0.0012985244393348694,0.000937967502977699,-0.0060340226627886295,0.0030311604496091604,0.30176353454589844,-0.02239540033042431,10.198774337768555
1765752894.2181065,0.9996610283851624,-0.0009390291525050998,-0.025984622538089752,0.0013015726581215858,0.0010367672657594085,-0.009765753522515297,0.0030130401719361544,0.2944211959838867,-0.022298472002148628,10.206274032592773
1765752894.219081,0.9996610283851624,-0.0009390291525050998,-0.025984622538089752,0.0013015726581215858,0.0010367672657594085,-0.009765753522515297,0.0030130401719361544,0.2944211959838867,-0.022298472002148628,10.206274032592773
1765752894.2201204,0.9996607303619385,-0.000937958771828562,-0.025997957214713097,0.0013046084204688668,0.0011312002316117287,-0.013345001265406609,0.0029948982410132885,0.287601113319397,-0.022194303572177887,10.213635444641113
1765752894.2210202,0.9996607303619385,-0.000937958771828562,-0.025997957214713097,0.0013046084204688668,0.0011312002316117287,-0.013345001265406609,0.0029948982410132885,0.287601113319397,-0.022194303572177887,10.213635444641113
1765752894.2222693,0.9996602535247803,-0.0009367933962494135,-0.026014717295765877,0.0013076316099613905,0.0012212784495204687,-0.016770286485552788,0.0029767148662358522,0.28274446725845337,-0.022104429081082344,10.219563484191895
1765752894.2231927,0.9996602535247803,-0.0009367933962494135,-0.026014717295765877,0.0013076316099613905,0.0012212784495204687,-0.016770286485552788,0.0029767148662358522,0.28274446725845337,-0.022104429081082344,10.219563484191895
1765752894.2244349,0.9996597170829773,-0.0009355369256809354,-0.026034770533442497,0.0013106419937685132,0.0013076497707515955,-0.020063279196619987,0.002958618802949786,0.27967265248298645,-0.022028950974345207,10.224058151245117
1765752894.2253785,0.9996591210365295,-0.0009341924451291561,-0.026058003306388855,0.0013136396883055568,0.001391046796925366,-0.023245716467499733,0.0029407080728560686,0.2779984474182129,-0.021962419152259827,10.227339744567871
1765752894.2266383,0.9996591210365295,-0.0009341924451291561,-0.026058003306388855,0.0013136396883055568,0.001391046796925366,-0.023245716467499733,0.0029407080728560686,0.2779984474182129,-0.021962419152259827,10.227339744567871
1765752894.227587,0.999658465385437,-0.000932762457523495,-0.026084324344992638,0.0013166246935725212,0.0014720947947353125,-0.026334797963500023,0.0029230115469545126,0.2773812711238861,-0.021899230778217316,10.229635238647461
1765752894.228854,0.999658465385437,-0.000932762457523495,-0.026084324344992638,0.0013166246935725212,0.0014720947947353125,-0.026334797963500023,0.0029230115469545126,0.2773812711238861,-0.021899230778217316,10.229635238647461
1765752894.2297716,0.9996576905250549,-0.0009312488837167621,-0.02611365355551243,0.0013195970095694065,0.0015512333484366536,-0.029343267902731895,0.0029055089689791203,0.27755650877952576,-0.021835142746567726,10.23115062713623
1765752894.2312057,0.9996576905250549,-0.0009312488837167621,-0.02611365355551243,0.0013195970095694065,0.0015512333484366536,-0.029343267902731895,0.0029055089689791203,0.27755650877952576,-0.021835142746567726,10.23115062713623
1765752894.232025,0.9996568560600281,-0.0009296535863541067,-0.026145918294787407,0.0013225567527115345,0.0016287127509713173,-0.03228030353784561,0.0028881558682769537,0.27835404872894287,-0.021767547354102135,10.232011795043945
1765752894.2335389,0.9996568560600281,-0.0009296535863541067,-0.026145918294787407,0.0013225567527115345,0.0016287127509713173,-0.03228030353784561,0.0028881558682769537,0.27835404872894287,-0.021767547354102135,10.232011795043945
1765752894.234211,0.9996559023857117,-0.0009279780788347125,-0.02618105337023735,0.0013255039229989052,0.0017046394059434533,-0.0351526103913784,0.0028709021862596273,0.27964672446250916,-0.021695254370570183,10.23232650756836
1765752894.2355025,0.9996548891067505,-0.0009262240491807461,-0.026218999177217484,0.0013284385204315186,0.0017790362471714616,-0.037965092808008194,0.0028537013567984104,0.27964672446250916,-0.021695254370570183,10.23232650756836
1765752894.2364545,0.9996548891067505,-0.0009262240491807461,-0.026218999177217484,0.0013284385204315186,0.0017790362471714616,-0.037965092808008194,0.0028537013567984104,0.3310205638408661,-0.0215953029692173,10.137641906738281
1765752894.237677,0.9996538162231445,-0.000924386375118047,-0.026260050013661385,0.0013313593808561563,0.001858062925748527,-0.04107022285461426,0.002835165476426482,0.28392887115478516,-0.02154194377362728,10.23078727722168
1765752894.23865,0.9996538162231445,-0.000924386375118047,-0.026260050013661385,0.0013313593808561563,0.001858062925748527,-0.04107022285461426,0.002835165476426482,0.28392887115478516,-0.02154194377362728,10.23078727722168
1765752894.2400892,0.9996526837348938,-0.0009224736713804305,-0.026303807273507118,0.0013342676684260368,0.0019291079370304942,-0.04377707466483116,0.002818058244884014,0.3271821141242981,-0.0213773176074028,10.1441650390625
1765752894.2408252,0.9996526837348938,-0.0009224736713804305,-0.026303807273507118,0.0013342676684260368,0.0019291079370304942,-0.04377707466483116,0.002818058244884014,0.3271821141242981,-0.0213773176074028,10.1441650390625
1765752894.2420475,0.9996514320373535,-0.0009204830857925117,-0.026350462809205055,0.0013371617533266544,0.0020026604179292917,-0.04667697846889496,0.0027994229458272457,0.3304069936275482,-0.021295424550771713,10.141960144042969
1765752894.243061,0.9996514320373535,-0.0009204830857925117,-0.026350462809205055,0.0013371617533266544,0.0020026604179292917,-0.04667697846889496,0.0027994229458272457,0.3304069936275482,-0.021295424550771713,10.141960144042969
1765752894.2443247,0.9996501207351685,-0.0009184165392071009,-0.026399971917271614,0.0013400419848039746,0.002074306830763817,-0.04953203722834587,0.002780879382044077,0.3266408145427704,-0.021168764680624008,10.147496223449707
1765752894.2456863,0.9996487498283386,-0.0009162774658761919,-0.026452206075191498,0.0013429078971967101,0.0021427355241030455,-0.052256662398576736,0.0027623241767287254,0.3231115937232971,-0.021040135994553566,10.152914047241211
1765752894.2457426,0.9996487498283386,-0.0009162774658761919,-0.026452206075191498,0.0013429078971967101,0.0021427355241030455,-0.052256662398576736,0.0027623241767287254,0.3231115937232971,-0.021040135994553566,10.152914047241211
1765752894.246411,0.9996487498283386,-0.0009162774658761919,-0.026452206075191498,0.0013429078971967101,0.0021427355241030455,-0.052256662398576736,0.0027623241767287254,0.3231115937232971,-0.021040135994553566,10.152914047241211
1765752894.247495,0.999647319316864,-0.0009140690672211349,-0.026507031172513962,0.001345759374089539,0.002208059886470437,-0.05484982579946518,0.0027437605895102024,0.32097259163856506,-0.020921669900417328,10.15707778930664
1765752894.2488122,0.999647319316864,-0.0009140690672211349,-0.026507031172513962,0.001345759374089539,0.002208059886470437,-0.05484982579946518,0.0027437605895102024,0.32097259163856506,-0.020921669900417328,10.15707778930664
1765752894.249687,0.9996457695960999,-0.0009117941954173148,-0.026564333587884903,0.0013485961826518178,0.002270739758387208,-0.05732981115579605,0.002725250320509076,0.32014012336730957,-0.02081272378563881,10.159996032714844
1765752894.2510777,0.9996457695960999,-0.0009117941954173148,-0.026564333587884903,0.0013485961826518178,0.002270739758387208,-0.05732981115579605,0.002725250320509076,0.32014012336730957,-0.02081272378563881,10.159996032714844
1765752894.251903,0.9996442198753357,-0.000909455178771168,-0.02662402205169201,0.0013514184392988682,0.0023312491830438375,-0.059714753180742264,0.0027068350464105606,0.32034820318222046,-0.02070978656411171,10.161887168884277
1765752894.25313,0.9996442198753357,-0.000909455178771168,-0.02662402205169201,0.0013514184392988682,0.0023312491830438375,-0.059714753180742264,0.0027068350464105606,0.32034820318222046,-0.02070978656411171,10.161887168884277
1765752894.2540615,0.999642550945282,-0.0009070538217201829,-0.026686014607548714,0.0013542260276153684,0.0023899641819298267,-0.06201908364892006,0.0026885231491178274,0.3213508725166321,-0.02060951478779316,10.16295051574707
1765752894.2556055,0.9996408224105835,-0.000904591812286526,-0.026750238612294197,0.0013570189476013184,0.002447133883833885,-0.06425344198942184,0.0026703011244535446,0.3722165822982788,-0.02050347998738289,10.066932678222656
1765752894.2566042,0.9996408224105835,-0.000904591812286526,-0.026750238612294197,0.0013570189476013184,0.002447133883833885,-0.06425344198942184,0.0026703011244535446,0.3722165822982788,-0.02050347998738289,10.066932678222656
1765752894.2566578,0.9996408224105835,-0.000904591812286526,-0.026750238612294197,0.0013570189476013184,0.002447133883833885,-0.06425344198942184,0.0026703011244535446,0.3722165822982788,-0.02050347998738289,10.066932678222656
1765752894.2576194,0.9996390342712402,-0.0009020647266879678,-0.02681700512766838,0.0013597965007647872,0.0025082745123654604,-0.06679725646972656,0.0026509880553931,0.325671911239624,-0.02041275054216385,10.162398338317871
1765752894.2585037,0.9996390342712402,-0.0009020647266879678,-0.02681700512766838,0.0013597965007647872,0.0025082745123654604,-0.06679725646972656,0.0026509880553931,0.325671911239624,-0.02041275054216385,10.162398338317871
1765752894.2597504,0.9996371865272522,-0.0008994800155051053,-0.02688589133322239,0.0013625593855977058,0.002562508452683687,-0.06891599297523499,0.002632926916703582,0.3688066899776459,-0.020256340503692627,10.074578285217285
1765752894.2607749,0.9996371865272522,-0.0008994800155051053,-0.02688589133322239,0.0013625593855977058,0.002562508452683687,-0.06891599297523499,0.002632926916703582,0.3688066899776459,-0.020256340503692627,10.074578285217285
1765752894.2619765,0.9996352791786194,-0.0008968351176008582,-0.026957105845212936,0.0013653066707774997,0.0026190574280917645,-0.07124580442905426,0.0026136550586670637,0.372284471988678,-0.0201621912419796,10.072632789611816
1765752894.2630093,0.9996352791786194,-0.0008968351176008582,-0.026957105845212936,0.0013653066707774997,0.0026190574280917645,-0.07124580442905426,0.0026136550586670637,0.372284471988678,-0.0201621912419796,10.072632789611816
1765752894.2642083,0.999633252620697,-0.0008941314881667495,-0.02703060396015644,0.0013680382398888469,0.0026741239707916975,-0.07353094965219498,0.0025945024099200964,0.3689211308956146,-0.020030826330184937,10.078640937805176
1765752894.26508,0.9996312260627747,-0.0008913719211705029,-0.027106253430247307,0.0013707539765164256,0.002726646140217781,-0.07568416744470596,0.0025753891095519066,0.36581408977508545,-0.019901802763342857,10.084451675415039
1765752894.2668033,0.9996312260627747,-0.0008913719211705029,-0.027106253430247307,0.0013707539765164256,0.002726646140217781,-0.07568416744470596,0.0025753891095519066,0.36581408977508545,-0.019901802763342857,10.084451675415039
1765752894.2680135,0.9996312260627747,-0.0008913719211705029,-0.027106253430247307,0.0013707539765164256,0.002726646140217781,-0.07568416744470596,0.0025753891095519066,0.36581408977508545,-0.019901802763342857,10.084451675415039
1765752894.2685883,0.9996291399002075,-0.0008885589777491987,-0.02718392387032509,0.0013734538806602359,0.0027767557185143232,-0.077705979347229,0.0025563181843608618,0.3640754818916321,-0.01978491060435772,10.088912963867188
1765752894.2689495,0.9996291399002075,-0.0008885589777491987,-0.02718392387032509,0.0013734538806602359,0.0027767557185143232,-0.077705979347229,0.0025563181843608618,0.3640754818916321,-0.01978491060435772,10.088912963867188
1765752894.2694726,0.9996269345283508,-0.0008856947533786297,-0.02726350538432598,0.0013761378359049559,0.0028248843736946583,-0.07961598038673401,0.0025373268872499466,0.3636244535446167,-0.019678354263305664,10.092074394226074
1765752894.2707388,0.9996269345283508,-0.0008856947533786297,-0.02726350538432598,0.0013761378359049559,0.0028248843736946583,-0.07961598038673401,0.0025373268872499466,0.3636244535446167,-0.019678354263305664,10.092074394226074
1765752894.2716744,0.9996247291564941,-0.0008827809360809624,-0.027344901114702225,0.0013788057258352637,0.0028714502695947886,-0.08143339306116104,0.0025184352416545153,0.3641982674598694,-0.019578170031309128,10.094157218933105
1765752894.2729049,0.9996224641799927,-0.0008798189810477197,-0.02742803655564785,0.0013814576668664813,0.0029167556203901768,-0.08317329734563828,0.002499641152098775,0.41436687111854553,-0.019485585391521454,9.997627258300781
1765752894.2738616,0.9996224641799927,-0.0008798189810477197,-0.02742803655564785,0.0013814576668664813,0.0029167556203901768,-0.08317329734563828,0.002499641152098775,0.41436687111854553,-0.019485585391521454,9.997627258300781
1765752894.2751112,0.9996224641799927,-0.0008798189810477197,-0.02742803655564785,0.0013814576668664813,0.0029167556203901768,-0.08317329734563828,0.002499641152098775,0.41436687111854553,-0.019485585391521454,9.997627258300781
1765752894.2761116,0.9996200799942017,-0.0008768046391196549,-0.027513233944773674,0.0013840929605066776,0.0029657173436135054,-0.08523541688919067,0.0024799047969281673,0.3681754767894745,-0.01938508078455925,10.095169067382812
1765752894.27751,0.9996200799942017,-0.0008768046391196549,-0.027513233944773674,0.0013840929605066776,0.0029657173436135054,-0.08523541688919067,0.0024799047969281673,0.3681754767894745,-0.01938508078455925,10.095169067382812
1765752894.2783778,0.9996176958084106,-0.0008737445459701121,-0.02760004810988903,0.0013867121888324618,0.0030087297782301903,-0.08685283362865448,0.00246127019636333,0.3622053265571594,-0.019239773973822594,10.105027198791504
1765752894.27991,0.9996152520179749,-0.0008706414373591542,-0.02768831141293049,0.001389315235428512,0.0030492530204355717,-0.08830345422029495,0.002442630473524332,0.41378143429756165,-0.0191486906260252,10.006179809570312
1765752894.280603,0.9996152520179749,-0.0008706414373591542,-0.02768831141293049,0.001389315235428512,0.0030492530204355717,-0.08830345422029495,0.002442630473524332,0.41378143429756165,-0.0191486906260252,10.006179809570312
1765752894.2816112,0.9996127486228943,-0.0008674912969581783,-0.027778370305895805,0.0013919014018028975,0.0030932514928281307,-0.09010085463523865,0.002423075959086418,0.4189583361148834,-0.01906219869852066,10.002995491027832
1765752894.282714,0.999610185623169,-0.000864294939674437,-0.027870209887623787,0.0013944709207862616,0.0031364187598228455,-0.09188138693571091,0.002403615741059184,0.4189583361148834,-0.01906219869852066,10.002995491027832
1765752894.2838755,0.999610185623169,-0.000864294939674437,-0.027870209887623787,0.0013944709207862616,0.0031364187598228455,-0.09188138693571091,0.002403615741059184,0.4159408211708069,-0.0189275573939085,10.009420394897461
1765752894.2852046,0.999610185623169,-0.000864294939674437,-0.027870209887623787,0.0013944709207862616,0.0031364187598228455,-0.09188138693571091,0.002403615741059184,0.4159408211708069,-0.0189275573939085,10.009420394897461
1765752894.286312,0.9996075630187988,-0.0008610548102296889,-0.027963697910308838,0.0013970235595479608,0.0031773659866303205,-0.09353164583444595,0.002384181832894683,0.4129323959350586,-0.018789812922477722,10.015843391418457
1765752894.2872458,0.9996075630187988,-0.0008610548102296889,-0.027963697910308838,0.0013970235595479608,0.0031773659866303205,-0.09353164583444595,0.002384181832894683,0.4129323959350586,-0.018789812922477722,10.015843391418457
1765752894.2891114,0.9996049404144287,-0.000857773469761014,-0.028058702126145363,0.0013995592016726732,0.003215962555259466,-0.09504826366901398,0.0023647984489798546,0.4112783670425415,-0.01866050437092781,10.020865440368652
1765752894.2894917,0.9996049404144287,-0.000857773469761014,-0.028058702126145363,0.0013995592016726732,0.003215962555259466,-0.09504826366901398,0.0023647984489798546,0.4112783670425415,-0.01866050437092781,10.020865440368652
1765752894.2895389,0.999602198600769,-0.0008544530719518661,-0.02815510891377926,0.0014020777307450771,0.0032524969428777695,-0.0964517742395401,0.0023455098271369934,0.41093870997428894,-0.018539993092417717,10.024494171142578
1765752894.290493,0.9995994567871094,-0.0008510954794473946,-0.028252827003598213,0.0014045792631804943,0.0032873530872166157,-0.09776292741298676,0.0023263408802449703,0.4599669575691223,-0.01843826100230217,9.928135871887207
1765752894.2916417,0.9995994567871094,-0.0008510954794473946,-0.028252827003598213,0.0014045792631804943,0.0032873530872166157,-0.09776292741298676,0.0023263408802449703,0.4599669575691223,-0.01843826100230217,9.928135871887207
1765752894.2927165,0.9995994567871094,-0.0008510954794473946,-0.028252827003598213,0.0014045792631804943,0.0032873530872166157,-0.09776292741298676,0.0023263408802449703,0.4599669575691223,-0.01843826100230217,9.928135871887207
1765752894.2938926,0.9995966553688049,-0.0008476972579956055,-0.028352180495858192,0.0014070632169023156,0.0033250513952225447,-0.09940116852521896,0.002306367503479123,0.4138562083244324,-0.018314754590392113,10.027849197387695
1765752894.295418,0.9995966553688049,-0.0008476972579956055,-0.028352180495858192,0.0014070632169023156,0.0033250513952225447,-0.09940116852521896,0.002306367503479123,0.4138562083244324,-0.018314754590392113,10.027849197387695
1765752894.2959976,0.9995937943458557,-0.0008442646940238774,-0.028452707454562187,0.0014095301739871502,0.0033572560641914606,-0.10057386010885239,0.0022874269634485245,0.40762218832969666,-0.018162453547120094,10.038777351379395
1765752894.2972283,0.9995937943458557,-0.0008442646940238774,-0.028452707454562187,0.0014095301739871502,0.0033572560641914606,-0.10057386010885239,0.0022874269634485245,0.40762218832969666,-0.018162453547120094,10.038777351379395
1765752894.298336,0.9995908737182617,-0.0008408004068769515,-0.028554236516356468,0.0014119800180196762,0.0033870788756757975,-0.10157594829797745,0.002268598647788167,0.41030022501945496,-0.018054861575365067,10.039031982421875
1765752894.2999656,0.9995908737182617,-0.0008408004068769515,-0.028554236516356468,0.0014119800180196762,0.0033870788756757975,-0.10157594829797745,0.002268598647788167,0.41030022501945496,-0.018054861575365067,10.039031982421875
1765752894.300565,0.999584972858429,-0.0008337803301401436,-0.028760135173797607,0.0014168284833431244,0.0034440692979842424,-0.1034669503569603,0.0022313660010695457,0.46735599637031555,-0.017871985211968422,9.935774803161621
1765752894.3018172,0.999584972858429,-0.0008337803301401436,-0.028760135173797607,0.0014168284833431244,0.0034440692979842424,-0.1034669503569603,0.0022313660010695457,0.46735599637031555,-0.017871985211968422,9.935774803161621
1765752894.3026917,0.999584972858429,-0.0008337803301401436,-0.028760135173797607,0.0014168284833431244,0.0034440692979842424,-0.1034669503569603,0.0022313660010695457,0.46735599637031555,-0.017871985211968422,9.935774803161621
1765752894.3039527,0.9995819926261902,-0.0008302212227135897,-0.02886488288640976,0.001419226871803403,0.0034756483510136604,-0.10479895770549774,0.0022120075300335884,0.4725736379623413,-0.017768122255802155,9.932944297790527
1765752894.3048203,0.9995819926261902,-0.0008302212227135897,-0.02886488288640976,0.001419226871803403,0.0034756483510136604,-0.10479895770549774,0.0022120075300335884,0.4725736379623413,-0.017768122255802155,9.932944297790527
1765752894.3064587,0.9995788931846619,-0.0008266289951279759,-0.028970947489142418,0.001421608030796051,0.0035064248368144035,-0.10611572116613388,0.002192695625126362,0.46943575143814087,-0.017619960010051727,9.940184593200684
1765752894.3070407,0.9995788931846619,-0.0008266289951279759,-0.028970947489142418,0.001421608030796051,0.0035064248368144035,-0.10611572116613388,0.002192695625126362,0.46943575143814087,-0.017619960010051727,9.940184593200684
1765752894.3083873,0.9995757937431335,-0.0008230059174820781,-0.02907819300889969,0.0014239716110751033,0.003534966381266713,-0.10729788988828659,0.0021734447218477726,0.4663432836532593,-0.0174711886793375,9.94736385345459
1765752894.3092809,0.9995757937431335,-0.0008230059174820781,-0.02907819300889969,0.0014239716110751033,0.003534966381266713,-0.10729788988828659,0.0021734447218477726,0.4663432836532593,-0.0174711886793375,9.94736385345459
1765752894.3109972,0.9995726346969604,-0.0008193546673282981,-0.029186483472585678,0.0014263177290558815,0.00356114748865366,-0.1083436831831932,0.0021543013863265514,0.4646623134613037,-0.01733294501900673,9.95301628112793
1765752894.3115182,0.9995694160461426,-0.0008156773401424289,-0.029295707121491432,0.0014286462683230639,0.0035853232257068157,-0.10927588492631912,0.0021353045012801886,0.4643324613571167,-0.017205530777573586,9.957183837890625
1765752894.3127673,0.9995694160461426,-0.0008156773401424289,-0.029295707121491432,0.0014286462683230639,0.0035853232257068157,-0.10927588492631912,0.0021353045012801886,0.4643324613571167,-0.017205530777573586,9.957183837890625
1765752894.3137453,0.9995661973953247,-0.0008119756239466369,-0.02940576896071434,0.0014309573452919722,0.0036079485435038805,-0.11011707037687302,0.0021164719946682453,0.46507126092910767,-0.017086166888475418,9.960148811340332
1765752894.3151827,0.9995661973953247,-0.0008119756239466369,-0.02940576896071434,0.0014309573452919722,0.0036079485435038805,-0.11011707037687302,0.0021164719946682453,0.46507126092910767,-0.017086166888475418,9.960148811340332
1765752894.315905,0.9995629191398621,-0.0008082507993094623,-0.02951659820973873,0.0014332509599626064,0.0036293924786150455,-0.1108851507306099,0.002097805729135871,0.46662086248397827,-0.016971740871667862,9.96216869354248
1765752894.3173637,0.9995629191398621,-0.0008082507993094623,-0.02951659820973873,0.0014332509599626064,0.0036293924786150455,-0.1108851507306099,0.002097805729135871,0.46662086248397827,-0.016971740871667862,9.96216869354248
1765752894.3180861,0.9995596408843994,-0.0008045039139688015,-0.02962813712656498,0.0014355273451656103,0.00364988436922431,-0.11159348487854004,0.002079298486933112,0.4687899053096771,-0.016859890893101692,9.963436126708984
1765752894.3193212,0.9995596408843994,-0.0008045039139688015,-0.02962813712656498,0.0014355273451656103,0.00364988436922431,-0.11159348487854004,0.002079298486933112,0.4687899053096771,-0.016859890893101692,9.963436126708984
1765752894.3203042,0.999556303024292,-0.0008007358992472291,-0.029740331694483757,0.001437786384485662,0.003669534344226122,-0.11225203424692154,0.0020609386265277863,0.4714299738407135,-0.016749214380979538,9.964117050170898
1765752894.3218846,0.9995529651641846,-0.0007969476282596588,-0.02985314279794693,0.0014400281943380833,0.0036883833818137646,-0.11286821961402893,0.002042713575065136,0.5218942761421204,-0.016657903790473938,9.863822937011719
1765752894.3227901,0.9995529651641846,-0.0007969476282596588,-0.02985314279794693,0.0014400281943380833,0.0036883833818137646,-0.11286821961402893,0.002042713575065136,0.5218942761421204,-0.016657903790473938,9.863822937011719
1765752894.3235753,0.9995495080947876,-0.0007931358995847404,-0.02996695600450039,0.0014422525418922305,0.0037098550237715244,-0.11387114226818085,0.00202377256937325,0.5259100794792175,-0.01654665544629097,9.862850189208984
1765752894.3246965,0.9995495080947876,-0.0007931358995847404,-0.02996695600450039,0.0014422525418922305,0.0037098550237715244,-0.11387114226818085,0.00202377256937325,0.5259100794792175,-0.01654665544629097,9.862850189208984
1765752894.3261876,0.9995461106300354,-0.0007893015863373876,-0.030081739649176598,0.0014444594271481037,0.0037303955759853125,-0.114842489361763,0.0020049025770276785,0.5219104290008545,-0.016399765387177467,9.871816635131836
1765752894.3269258,0.9995461106300354,-0.0007893015863373876,-0.030081739649176598,0.0014444594271481037,0.0037303955759853125,-0.114842489361763,0.0020049025770276785,0.5219104290008545,-0.016399765387177467,9.871816635131836
1765752894.328272,0.9995425939559937,-0.0007854471332393587,-0.030197348445653915,0.001446648733690381,0.0037488460075110197,-0.11566760390996933,0.0019861706532537937,0.5181689858436584,-0.01625566929578781,9.880464553833008
1765752894.3290808,0.9995390772819519,-0.0007815747521817684,-0.030313637107610703,0.0014488205779343843,0.003765204455703497,-0.1163492277264595,0.001967621734365821,0.5159833431243896,-0.01612328179180622,9.887374877929688
1765752894.3307142,0.9995390772819519,-0.0007815747521817684,-0.030313637107610703,0.0014488205779343843,0.003765204455703497,-0.1163492277264595,0.001967621734365821,0.5159833431243896,-0.01612328179180622,9.887374877929688
1765752894.3315794,0.9995390772819519,-0.0007815747521817684,-0.030313637107610703,0.0014488205779343843,0.003765204455703497,-0.1163492277264595,0.001967621734365821,0.5159833431243896,-0.01612328179180622,9.887374877929688
1765752894.3316333,0.9995355010032654,-0.000777686305809766,-0.030430488288402557,0.0014509749598801136,0.0037798667326569557,-0.11691347509622574,0.0019492779392749071,0.5152508616447449,-0.016002096235752106,9.8926420211792
1765752894.3325267,0.9995355010032654,-0.000777686305809766,-0.030430488288402557,0.0014509749598801136,0.0037798667326569557,-0.11691347509622574,0.0019492779392749071,0.5152508616447449,-0.016002096235752106,9.8926420211792
1765752894.3334963,0.9995319247245789,-0.0007737832493148744,-0.030547812581062317,0.0014531118795275688,0.0037932784762233496,-0.11738544702529907,0.001931142178364098,0.5156531929969788,-0.015889108180999756,9.896589279174805
1765752894.3350627,0.9995319247245789,-0.0007737832493148744,-0.030547812581062317,0.0014531118795275688,0.0037932784762233496,-0.11738544702529907,0.001931142178364098,0.5156531929969788,-0.015889108180999756,9.896589279174805
1765752894.3357415,0.9995283484458923,-0.0007698665140196681,-0.030665535479784012,0.0014552315697073936,0.003805778920650482,-0.117784783244133,0.0019132066518068314,0.5169160962104797,-0.01578127220273018,9.899507522583008
1765752894.336865,0.9995283484458923,-0.0007698665140196681,-0.030665535479784012,0.0014552315697073936,0.003805778920650482,-0.117784783244133,0.0019132066518068314,0.5169160962104797,-0.01578127220273018,9.899507522583008
1765752894.3379543,0.999524712562561,-0.0007659369730390608,-0.030783599242568016,0.00145733414683491,0.0038175692316144705,-0.11812625825405121,0.001895457855425775,0.5188337564468384,-0.015676362439990044,9.901613235473633
1765752894.3393438,0.9995210766792297,-0.0007619952666573226,-0.03090195544064045,0.0014594197273254395,0.0038287427742034197,-0.11842089891433716,0.0018778805388137698,0.5680926442146301,-0.01559419184923172,9.801992416381836
1765752894.3403676,0.9995210766792297,-0.0007619952666573226,-0.03090195544064045,0.0014594197273254395,0.0038287427742034197,-0.11842089891433716,0.0018778805388137698,0.5680926442146301,-0.01559419184923172,9.801992416381836
1765752894.341717,0.9995210766792297,-0.0007619952666573226,-0.03090195544064045,0.0014594197273254395,0.0038287427742034197,-0.11842089891433716,0.0018778805388137698,0.5680926442146301,-0.01559419184923172,9.801992416381836
1765752894.342379,0.9995173811912537,-0.000758038368076086,-0.031021002680063248,0.0014614879619330168,0.0038423731457442045,-0.11911030113697052,0.001859663287177682,0.5248692035675049,-0.01546874176710844,9.903379440307617
1765752894.343728,0.9995136857032776,-0.0007540706428699195,-0.031140269711613655,0.0014635393163189292,0.0038523070979863405,-0.11933297663927078,0.0018423276487737894,0.5197348594665527,-0.015334883704781532,9.914392471313477
1765752894.3445742,0.9995136857032776,-0.0007540706428699195,-0.031140269711613655,0.0014635393163189292,0.0038523070979863405,-0.11933297663927078,0.0018423276487737894,0.5197348594665527,-0.015334883704781532,9.914392471313477
1765752894.345816,0.9995099306106567,-0.0007500940118916333,-0.03125961497426033,0.0014655739068984985,0.0038606002926826477,-0.11940953135490417,0.001825232757255435,0.5697981715202332,-0.015256799757480621,9.81307315826416
1765752894.3467233,0.9995099306106567,-0.0007500940118916333,-0.03125961497426033,0.0014655739068984985,0.0038606002926826477,-0.11940953135490417,0.001825232757255435,0.5697981715202332,-0.015256799757480621,9.81307315826416
1765752894.3481884,0.9995061755180359,-0.0007461054483428597,-0.031379446387290955,0.0014675915008410811,0.003871223423629999,-0.11989888548851013,0.0018075109692290425,0.5754611492156982,-0.015164568088948727,9.810687065124512
1765752894.3489563,0.999502420425415,-0.0007421053014695644,-0.031499773263931274,0.001469592098146677,0.003881539683789015,-0.12039125710725784,0.0017898603109642863,0.5754611492156982,-0.015164568088948727,9.810687065124512
1765752894.3505578,0.999502420425415,-0.0007421053014695644,-0.031499773263931274,0.001469592098146677,0.003881539683789015,-0.12039125710725784,0.0017898603109642863,0.5730323791503906,-0.015041349455714226,9.818581581115723
1765752894.351134,0.999502420425415,-0.0007421053014695644,-0.031499773263931274,0.001469592098146677,0.003881539683789015,-0.12039125710725784,0.0017898603109642863,0.5730323791503906,-0.015041349455714226,9.818581581115723
1765752894.3526976,0.9994986057281494,-0.0007380950264632702,-0.03162047266960144,0.0014715756988152862,0.003890553954988718,-0.12076946347951889,0.0017723746132105589,0.5705077052116394,-0.014918224886059761,9.826507568359375
1765752894.353351,0.9994986057281494,-0.0007380950264632702,-0.03162047266960144,0.0014715756988152862,0.003890553954988718,-0.12076946347951889,0.0017723746132105589,0.5705077052116394,-0.014918224886059761,9.826507568359375
1765752894.3546154,0.999494731426239,-0.0007340761949308217,-0.0317414365708828,0.0014735425356775522,0.003898164490237832,-0.1210305467247963,0.0017550865886732936,0.5692194700241089,-0.014802918769419193,9.83297348022461
1765752894.3555386,0.9994909167289734,-0.0007300501456484199,-0.031862564384937286,0.0014754924923181534,0.003904602723196149,-0.1211954802274704,0.0017380011267960072,0.5691277384757996,-0.014695708639919758,9.838017463684082
1765752894.357193,0.9994909167289734,-0.0007300501456484199,-0.031862564384937286,0.0014754924923181534,0.003904602723196149,-0.1211954802274704,0.0017380011267960072,0.5691277384757996,-0.014695708639919758,9.838017463684082
1765752894.3579228,0.999487042427063,-0.0007260178681463003,-0.03198377788066864,0.0014774259179830551,0.003910169471055269,-0.12128525972366333,0.0017211110098287463,0.5699889063835144,-0.014594768173992634,9.841897010803223
1765752894.359423,0.9994831681251526,-0.0007219800027087331,-0.03210502490401268,0.0014793426962569356,0.003915108740329742,-0.12131668627262115,0.0017044045962393284,0.6176931858062744,-0.014520127326250076,9.74323558807373
1765752894.3599222,0.9994831681251526,-0.0007219800027087331,-0.03210502490401268,0.0014793426962569356,0.003915108740329742,-0.12131668627262115,0.0017044045962393284,0.6176931858062744,-0.014520127326250076,9.74323558807373
1765752894.3613544,0.9994831681251526,-0.0007219800027087331,-0.03210502490401268,0.0014793426962569356,0.003915108740329742,-0.12131668627262115,0.0017044045962393284,0.6176931858062744,-0.014520127326250076,9.74323558807373
1765752894.3622203,0.9994792342185974,-0.0007179338717833161,-0.03222670033574104,0.001481242710724473,0.003922260366380215,-0.12174555659294128,0.0016871084226295352,0.5745841264724731,-0.014401473104953766,9.846464157104492
1765752894.363629,0.9994792342185974,-0.0007179338717833161,-0.03222670033574104,0.001481242710724473,0.003922260366380215,-0.12174555659294128,0.0016871084226295352,0.5745841264724731,-0.014401473104953766,9.846464157104492
1765752894.3643425,0.9994753003120422,-0.0007138832006603479,-0.03234832361340523,0.0014831264270469546,0.003926255740225315,-0.12169365584850311,0.0016706641763448715,0.5689394474029541,-0.014279293827712536,9.858783721923828
1765752894.3656669,0.9994713664054871,-0.0007098297355696559,-0.032469749450683594,0.0014849938452243805,0.003928885795176029,-0.12149373441934586,0.0016544978134334087,0.5718585252761841,-0.014188965782523155,9.8599271774292
1765752894.3665938,0.9994713664054871,-0.0007098297355696559,-0.032469749450683594,0.0014849938452243805,0.003928885795176029,-0.12149373441934586,0.0016544978134334087,0.5718585252761841,-0.014188965782523155,9.8599271774292
1765752894.3678086,0.9994674324989319,-0.0007057737675495446,-0.032590948045253754,0.0014868451980873942,0.00393111165612936,-0.12127042561769485,0.0016385046765208244,0.6222121119499207,-0.014128139242529869,9.757189750671387
1765752894.3687184,0.9994634389877319,-0.0007017122698016465,-0.03271237388253212,0.0014886802528053522,0.0039358283393085,-0.12149835377931595,0.0016218832461163402,0.6276266574859619,-0.01404400635510683,9.755515098571777
1765752894.3702614,0.9994634389877319,-0.0007017122698016465,-0.03271237388253212,0.0014886802528053522,0.0039358283393085,-0.12149835377931595,0.0016218832461163402,0.6276266574859619,-0.01404400635510683,9.755515098571777
1765752894.3712556,0.9994634389877319,-0.0007017122698016465,-0.03271237388253212,0.0014886802528053522,0.0039358283393085,-0.12149835377931595,0.0016218832461163402,0.6276266574859619,-0.01404400635510683,9.755515098571777
1765752894.3720438,0.999459445476532,-0.0006976452423259616,-0.03283403441309929,0.0014904990093782544,0.003940448630601168,-0.12173265218734741,0.0016053082654252648,0.6248052716255188,-0.013930050656199455,9.764508247375488
1765752894.373133,0.999459445476532,-0.0006976452423259616,-0.03283403441309929,0.0014904990093782544,0.003940448630601168,-0.12173265218734741,0.0016053082654252648,0.6248052716255188,-0.013930050656199455,9.764508247375488
1765752894.3748572,0.999455451965332,-0.00069357396569103,-0.03295581042766571,0.0014923015842214227,0.003943925723433495,-0.1218515932559967,0.001588907791301608,0.6219128370285034,-0.0138159254565835,9.773487091064453
1765752894.376097,0.999455451965332,-0.00069357396569103,-0.03295581042766571,0.0014923015842214227,0.003943925723433495,-0.1218515932559967,0.001588907791301608,0.6219128370285034,-0.0138159254565835,9.773487091064453
1765752894.3761573,0.9994514584541321,-0.0006894999532960355,-0.03307759016752243,0.001494087977334857,0.00394613528624177,-0.12185275554656982,0.0015727145364508033,0.6203065514564514,-0.013709369115531445,9.780900955200195
1765752894.3772604,0.9994514584541321,-0.0006894999532960355,-0.03307759016752243,0.001494087977334857,0.00394613528624177,-0.12185275554656982,0.0015727145364508033,0.6203065514564514,-0.013709369115531445,9.780900955200195
1765752894.3778079,0.9994474053382874,-0.0006854243692941964,-0.03319927677512169,0.0014958583051338792,0.003947313874959946,-0.12175830453634262,0.0015567271038889885,0.6199378967285156,-0.013610773719847202,9.786794662475586
1765752894.3791544,0.9994433522224426,-0.0006813480868004262,-0.03332079201936722,0.001497612800449133,0.003947313874959946,-0.12175830453634262,0.0015567271038889885,0.6199378967285156,-0.013610773719847202,9.786794662475586
1765752894.3798342,0.9994433522224426,-0.0006813480868004262,-0.03332079201936722,0.001497612800449133,0.003947773948311806,-0.12159028649330139,0.0015409337356686592,0.6706904172897339,-0.013359016738831997,9.696868896484375
1765752894.3810453,0.9994433522224426,-0.0006813480868004262,-0.03332079201936722,0.001497612800449133,0.003947773948311806,-0.12159028649330139,0.0015409337356686592,0.6706904172897339,-0.013359016738831997,9.696868896484375
1765752894.3820093,0.9994392991065979,-0.0006772567867301404,-0.033442460000514984,0.0014993477379903197,0.0039618248119950294,-0.12174201011657715,0.001520818448625505,0.6228959560394287,-0.013431424275040627,9.79470157623291
1765752894.3837576,0.9994392991065979,-0.0006772567867301404,-0.033442460000514984,0.0014993477379903197,0.0039618248119950294,-0.12174201011657715,0.001520818448625505,0.6228959560394287,-0.013431424275040627,9.79470157623291
1765752894.3843257,0.9994352459907532,-0.0006731658359058201,-0.03356385603547096,0.0015010670758783817,0.003961408510804176,-0.12147282063961029,0.0015054409159347415,0.6166368126869202,-0.013271810486912727,9.80786418914795
1765752894.3855867,0.9994352459907532,-0.0006731658359058201,-0.03356385603547096,0.0015010670758783817,0.003961408510804176,-0.12147282063961029,0.0015054409159347415,0.6166368126869202,-0.013271810486912727,9.80786418914795
1765752894.386498,0.999427080154419,-0.0006650068098679185,-0.03380538895726204,0.001504460466094315,0.00394628569483757,-0.12062372267246246,0.0014764120569452643,0.6680850982666016,-0.013159171678125858,9.70803451538086
1765752894.3879752,0.999427080154419,-0.0006650068098679185,-0.03380538895726204,0.001504460466094315,0.00394628569483757,-0.12062372267246246,0.0014764120569452643,0.6680850982666016,-0.013159171678125858,9.70803451538086
1765752894.3886092,0.999427080154419,-0.0006650068098679185,-0.03380538895726204,0.001504460466094315,0.00394628569483757,-0.12062372267246246,0.0014764120569452643,0.6680850982666016,-0.013159171678125858,9.70803451538086
1765752894.3898787,0.9994229674339294,-0.0006609335541725159,-0.03392595797777176,0.0015061344020068645,0.003943407908082008,-0.12064451724290848,0.0014612633967772126,0.6730921864509583,-0.013110140338540077,9.707327842712402
1765752894.3907914,0.9994229674339294,-0.0006609335541725159,-0.03392595797777176,0.0015061344020068645,0.003943407908082008,-0.12064451724290848,0.0014612633967772126,0.6730921864509583,-0.013110140338540077,9.707327842712402
1765752894.3921373,0.9994189143180847,-0.0006568601820617914,-0.03404655307531357,0.0015077932039275765,0.003942986950278282,-0.12067104130983353,0.001446080394089222,0.6699470281600952,-0.01302042044699192,9.717377662658691
1765752894.3929956,0.9994189143180847,-0.0006568601820617914,-0.03404655307531357,0.0015077932039275765,0.003942986950278282,-0.12067104130983353,0.001446080394089222,0.6699470281600952,-0.01302042044699192,9.717377662658691
1765752894.3944864,0.9994148015975952,-0.0006527863442897797,-0.034167055040597916,0.001509436871856451,0.003943023271858692,-0.12058218568563461,0.001431015320122242,0.6667600870132446,-0.012916868552565575,9.727360725402832
1765752894.3954635,0.9994148015975952,-0.0006527863442897797,-0.034167055040597916,0.001509436871856451,0.003943023271858692,-0.12058218568563461,0.001431015320122242,0.6667600870132446,-0.012916868552565575,9.727360725402832
1765752894.3966563,0.9994106888771057,-0.0006487129139713943,-0.034287355840206146,0.001511065405793488,0.003942391835153103,-0.12037648260593414,0.001416102284565568,0.6648772358894348,-0.012812359258532524,9.735709190368652
1765752894.3976483,0.9994065165519714,-0.0006446411134675145,-0.0344073548913002,0.0015126789221540093,0.003940722905099392,-0.12007677555084229,0.0014013394247740507,0.6642450094223022,-0.012713001109659672,9.742478370666504
1765752894.3990316,0.9994065165519714,-0.0006446411134675145,-0.0344073548913002,0.0015126789221540093,0.003940722905099392,-0.12007677555084229,0.0014013394247740507,0.6642450094223022,-0.012713001109659672,9.742478370666504
1765752894.399614,0.9994024038314819,-0.0006405719905160367,-0.03452698141336441,0.001514277420938015,0.003938122186809778,-0.1197056993842125,0.0013867192901670933,0.6645949482917786,-0.012620420195162296,9.74797248840332
1765752894.4008214,0.9994024038314819,-0.0006405719905160367,-0.03452698141336441,0.001514277420938015,0.003938122186809778,-0.1197056993842125,0.0013867192901670933,0.6645949482917786,-0.012620420195162296,9.74797248840332
1765752894.4017763,0.9993982911109924,-0.000636506185401231,-0.034646183252334595,0.0015158611349761486,0.003934873268008232,-0.11928123980760574,0.0013722350122407079,0.6656832098960876,-0.012533602304756641,9.752471923828125
1765752894.4032729,0.9993982911109924,-0.000636506185401231,-0.034646183252334595,0.0015158611349761486,0.003934873268008232,-0.11928123980760574,0.0013722350122407079,0.6656832098960876,-0.012533602304756641,9.752471923828125
1765752894.404004,0.9993941783905029,-0.0006324442801997066,-0.03476492315530777,0.0015174299478530884,0.003931238315999508,-0.11881697177886963,0.0013578805373981595,0.667323648929596,-0.01245061494410038,9.75619888305664
1765752894.4052775,0.9993941783905029,-0.0006324442801997066,-0.03476492315530777,0.0015174299478530884,0.003931238315999508,-0.11881697177886963,0.0013578805373981595,0.667323648929596,-0.01245061494410038,9.75619888305664
1765752894.406248,0.9993900656700134,-0.0006283863913267851,-0.03488316759467125,0.0015189842088147998,0.003927380312234163,-0.11832302808761597,0.0013436498120427132,0.6693857312202454,-0.012369735166430473,9.759302139282227
1765752894.4075425,0.9993859529495239,-0.0006243328680284321,-0.03500089421868324,0.001520523801445961,0.0039233677089214325,-0.1178070455789566,0.0013295364333316684,0.7160220742225647,-0.012311547063291073,9.659341812133789
1765752894.4083827,0.9993859529495239,-0.0006243328680284321,-0.03500089421868324,0.001520523801445961,0.0039233677089214325,-0.1178070455789566,0.0013295364333316684,0.7160220742225647,-0.012311547063291073,9.659341812133789
1765752894.409709,0.9993817806243896,-0.0006202810327522457,-0.035118553787469864,0.0015220486093312502,0.003921260125935078,-0.11773669719696045,0.0013148270081728697,0.6753793358802795,-0.012208234518766403,9.763456344604492
1765752894.4108584,0.9993817806243896,-0.0006202810327522457,-0.035118553787469864,0.0015220486093312502,0.003921260125935078,-0.11773669719696045,0.0013148270081728697,0.6753793358802795,-0.012208234518766403,9.763456344604492
1765752894.4119346,0.9993776679039001,-0.0006162338540889323,-0.03523566201329231,0.001523558865301311,0.003916914574801922,-0.11719034612178802,0.001300860196352005,0.7142645120620728,-0.012127243913710117,9.673582077026367
1765752894.4130588,0.9993776679039001,-0.0006162338540889323,-0.03523566201329231,0.001523558865301311,0.003916914574801922,-0.11719034612178802,0.001300860196352005,0.7142645120620728,-0.012127243913710117,9.673582077026367
1765752894.4148054,0.9993735551834106,-0.0006121897604316473,-0.03535256162285805,0.0015250544529408216,0.003913574386388063,-0.11697877943515778,0.0012864521704614162,0.7181990146636963,-0.012047097086906433,9.674342155456543
1765752894.415419,0.9993735551834106,-0.0006121897604316473,-0.03535256162285805,0.0015250544529408216,0.003913574386388063,-0.11697877943515778,0.0012864521704614162,0.7181990146636963,-0.012047097086906433,9.674342155456543
1765752894.4167483,0.9993694424629211,-0.0006081491592340171,-0.03546924144029617,0.001526535488665104,0.003909983206540346,-0.11676020175218582,0.0012721008388325572,0.7155445218086243,-0.011950453743338585,9.684249877929688
1765752894.4172685,0.9993652701377869,-0.0006041128654032946,-0.03558560460805893,0.0015280019724741578,0.003905613673850894,-0.11644050478935242,0.0012579290196299553,0.7155445218086243,-0.011950453743338585,9.684249877929688
1765752894.4188938,0.9993652701377869,-0.0006041128654032946,-0.03558560460805893,0.0015280019724741578,0.003905613673850894,-0.11644050478935242,0.0012579290196299553,0.7129618525505066,-0.011855145916342735,9.693937301635742
1765752894.4195487,0.9993611574172974,-0.0006000818684697151,-0.03570154309272766,0.0015294540207833052,0.003900480456650257,-0.1160210445523262,0.001243956503458321,0.7115359902381897,-0.011765286326408386,9.702106475830078
1765752894.4210474,0.9993611574172974,-0.0006000818684697151,-0.03570154309272766,0.0015294540207833052,0.003900480456650257,-0.1160210445523262,0.001243956503458321,0.7115359902381897,-0.011765286326408386,9.702106475830078
1765752894.4217052,0.9993570446968079,-0.0005960568087175488,-0.0358169861137867,0.0015308917500078678,0.0038947747088968754,-0.1155223399400711,0.0012301714159548283,0.7112051248550415,-0.011680579744279385,9.708823204040527
1765752894.422951,0.9993570446968079,-0.0005960568087175488,-0.0358169861137867,0.0015308917500078678,0.0038947747088968754,-0.1155223399400711,0.0012301714159548283,0.7112051248550415,-0.011680579744279385,9.708823204040527
1765752894.4239178,0.9993528723716736,-0.0005920381518080831,-0.035931870341300964,0.0015323152765631676,0.00388869596645236,-0.1149643212556839,0.0012165566440671682,0.7117255926132202,-0.011599594727158546,9.714378356933594
1765752894.4253693,0.9993528723716736,-0.0005920381518080831,-0.035931870341300964,0.0015323152765631676,0.00388869596645236,-0.1149643212556839,0.0012165566440671682,0.7117255926132202,-0.011599594727158546,9.714378356933594
1765752894.426129,0.9993487596511841,-0.0005880263051949441,-0.03604615107178688,0.001533724833279848,0.0038823846261948347,-0.11436276882886887,0.0012030962388962507,0.7128833532333374,-0.011520929634571075,9.719027519226074
1765752894.42764,0.9993446469306946,-0.000584021327085793,-0.03615979850292206,0.0015351204201579094,0.0038759151939302683,-0.1137295514345169,0.001189776579849422,0.7128833532333374,-0.011520929634571075,9.719027519226074
1765752894.428851,0.9993446469306946,-0.000584021327085793,-0.03615979850292206,0.0015351204201579094,0.0038759151939302683,-0.1137295514345169,0.001189776579849422,0.7579187750816345,-0.01146571896970272,9.620257377624512
1765752894.430194,0.9993405342102051,-0.0005800208891741931,-0.03627325966954231,0.0015365018043667078,0.003871178487315774,-0.11354181915521622,0.0011758963810279965,0.7175553441047668,-0.011364884674549103,9.72563362121582
1765752894.4306672,0.9993405342102051,-0.0005800208891741931,-0.03627325966954231,0.0015365018043667078,0.003871178487315774,-0.11354181915521622,0.0011758963810279965,0.7175553441047668,-0.011364884674549103,9.72563362121582
1765752894.4316502,0.9993364810943604,-0.0005760277854278684,-0.036386046558618546,0.0015378694515675306,0.0038644345477223396,-0.11286765336990356,0.0011627544881775975,0.7550777792930603,-0.011289405636489391,9.636823654174805
1765752894.432713,0.9993364810943604,-0.0005760277854278684,-0.036386046558618546,0.0015378694515675306,0.0038644345477223396,-0.11286765336990356,0.0011627544881775975,0.7550777792930603,-0.011289405636489391,9.636823654174805
1765752894.434201,0.9993323683738708,-0.0005720405024476349,-0.03649849444627762,0.0015392231289297342,0.0038586126174777746,-0.11253179609775543,0.0011492056073620915,0.7585616707801819,-0.011212173849344254,9.638517379760742
1765752894.4353383,0.9993282556533813,-0.0005680592148564756,-0.03661060333251953,0.0015405628364533186,0.00385260209441185,-0.11218763887882233,0.0011357173789292574,0.7555463910102844,-0.011119933798909187,9.649396896362305
1765752894.4365618,0.9993282556533813,-0.0005680592148564756,-0.03661060333251953,0.0015405628364533186,0.00385260209441185,-0.11218763887882233,0.0011357173789292574,0.7555463910102844,-0.011119933798909187,9.649396896362305
1765752894.4371483,0.9993282556533813,-0.0005680592148564756,-0.03661060333251953,0.0015405628364533186,0.00385260209441185,-0.11218763887882233,0.0011357173789292574,0.7555463910102844,-0.011119933798909187,9.649396896362305
1765752894.438665,0.9993241429328918,-0.000564084853976965,-0.03672226145863533,0.0015418888069689274,0.0038459105417132378,-0.11174187064170837,0.0011224165791645646,0.7526267170906067,-0.011028789915144444,9.660002708435059
1765752894.439339,0.9993241429328918,-0.000564084853976965,-0.03672226145863533,0.0015418888069689274,0.0038459105417132378,-0.11174187064170837,0.0011224165791645646,0.7526267170906067,-0.011028789915144444,9.660002708435059
1765752894.4409385,0.9993200898170471,-0.0005601181765086949,-0.036833375692367554,0.0015432010404765606,0.003838547272607684,-0.11119657009840012,0.0011093193897977471,0.7508866786956787,-0.010942518711090088,9.669013977050781
1765752894.4419265,0.9993159770965576,-0.0005561598227359354,-0.036943867802619934,0.00154449965339154,0.003830689238384366,-0.11057286709547043,0.001096410327591002,0.7502474784851074,-0.010860875248908997,9.676525115966797
1765752894.4429026,0.9993159770965576,-0.0005561598227359354,-0.036943867802619934,0.00154449965339154,0.003830689238384366,-0.11057286709547043,0.001096410327591002,0.7502474784851074,-0.010860875248908997,9.676525115966797
1765752894.4442143,0.9993119239807129,-0.000552210200112313,-0.037053678184747696,0.0015457849949598312,0.0038225215394049883,-0.10989108681678772,0.0010836694855242968,0.7504687309265137,-0.010782579891383648,9.682822227478027
1765752894.4450238,0.9993078708648682,-0.0005482695996761322,-0.03716276213526726,0.0015470569487661123,0.0038141729310154915,-0.10916738957166672,0.001071079750545323,0.7939227223396301,-0.010729414410889149,9.585465431213379
1765752894.4459434,0.9993078708648682,-0.0005482695996761322,-0.03716276213526726,0.0015470569487661123,0.0038141729310154915,-0.10916738957166672,0.001071079750545323,0.7939227223396301,-0.010729414410889149,9.585465431213379
1765752894.4476058,0.9993078708648682,-0.0005482695996761322,-0.03716276213526726,0.0015470569487661123,0.0038141729310154915,-0.10916738957166672,0.001071079750545323,0.7939227223396301,-0.010729414410889149,9.585465431213379
1765752894.4482849,0.9993038177490234,-0.0005443356931209564,-0.037271566689014435,0.0015483152819797397,0.003807433182373643,-0.10888710618019104,0.0010579503141343594,0.7537387609481812,-0.010629215277731419,9.692084312438965
1765752894.449913,0.9993038177490234,-0.0005443356931209564,-0.037271566689014435,0.0015483152819797397,0.003807433182373643,-0.10888710618019104,0.0010579503141343594,0.7537387609481812,-0.010629215277731419,9.692084312438965
1765752894.450389,0.9992997646331787,-0.0005404110415838659,-0.03737959638237953,0.0015495605766773224,0.003798868739977479,-0.10811075568199158,0.001045550568960607,0.7474267482757568,-0.01053514052182436,9.707389831542969
1765752894.4518852,0.9992957711219788,-0.000536496692802757,-0.037486717104911804,0.0015507928328588605,0.003789482405409217,-0.10720088332891464,0.0010334440739825368,0.7918712496757507,-0.010484668426215649,9.607918739318848
1765752894.4525468,0.9992917776107788,-0.0005325904348865151,-0.03759339079260826,0.0015520119341090322,0.003781649749726057,-0.10675720870494843,0.0010207885643467307,0.7963718771934509,-0.010414646938443184,9.608621597290039
1765752894.4538,0.9992917776107788,-0.0005325904348865151,-0.03759339079260826,0.0015520119341090322,0.003781649749726057,-0.10675720870494843,0.0010207885643467307,0.7963718771934509,-0.010414646938443184,9.608621597290039
1765752894.4548047,0.9992917776107788,-0.0005325904348865151,-0.03759339079260826,0.0015520119341090322,0.003781649749726057,-0.10675720870494843,0.0010207885643467307,0.7963718771934509,-0.010414646938443184,9.608621597290039
1765752894.4560611,0.9992877840995789,-0.0005286920350044966,-0.03769963979721069,0.0015532178804278374,0.003773938398808241,-0.10633154958486557,0.0010081487707793713,0.7930507659912109,-0.010325917042791843,9.62031078338623
1765752894.456917,0.9992877840995789,-0.0005286920350044966,-0.03769963979721069,0.0015532178804278374,0.003773938398808241,-0.10633154958486557,0.0010081487707793713,0.7930507659912109,-0.010325917042791843,9.62031078338623
1765752894.4584813,0.9992837905883789,-0.0005248022498562932,-0.03780536353588104,0.001554410788230598,0.003765641013160348,-0.10580617189407349,0.0009956907015293837,0.7896044850349426,-0.010236493311822414,9.631989479064941
1765752894.4590883,0.9992837905883789,-0.0005248022498562932,-0.03780536353588104,0.001554410788230598,0.003765641013160348,-0.10580617189407349,0.0009956907015293837,0.7896044850349426,-0.010236493311822414,9.631989479064941
1765752894.4603865,0.999279797077179,-0.0005209219525568187,-0.03791046142578125,0.001555590657517314,0.0037566600367426872,-0.10517887771129608,0.0009834358934313059,0.7873638272285461,-0.010151373222470284,9.642001152038574
1765752894.4614031,0.999279797077179,-0.0005209219525568187,-0.03791046142578125,0.001555590657517314,0.0037566600367426872,-0.10517887771129608,0.0009834358934313059,0.7873638272285461,-0.010151373222470284,9.642001152038574
1765752894.4626563,0.9992718696594238,-0.0005131922662258148,-0.038118474185466766,0.0015579123282805085,0.0037373220548033714,-0.10370441526174545,0.0009594649309292436,0.7861231565475464,-0.009994243271648884,9.657470703125
1765752894.463606,0.9992718696594238,-0.0005131922662258148,-0.038118474185466766,0.0015579123282805085,0.0037373220548033714,-0.10370441526174545,0.0009594649309292436,0.7861231565475464,-0.009994243271648884,9.657470703125
1765752894.464822,0.9992718696594238,-0.0005131922662258148,-0.038118474185466766,0.0015579123282805085,0.0037373220548033714,-0.10370441526174545,0.0009594649309292436,0.7861231565475464,-0.009994243271648884,9.657470703125
1765752894.4657257,0.9992679357528687,-0.0005093434592708945,-0.03822128847241402,0.001559054129756987,0.0037273240741342306,-0.10289586335420609,0.0009477097191847861,0.7866263389587402,-0.009919753298163414,9.663544654846191
1765752894.4669466,0.9992679357528687,-0.0005093434592708945,-0.03822128847241402,0.001559054129756987,0.0037273240741342306,-0.10289586335420609,0.0009477097191847861,0.7866263389587402,-0.009919753298163414,9.663544654846191
1765752894.4678776,0.9992640614509583,-0.000505505595356226,-0.03832326456904411,0.001560183591209352,0.0037172420416027308,-0.10205839574337006,0.0009360876283608377,0.7876267433166504,-0.009846506640315056,9.668828964233398
1765752894.4691594,0.9992640614509583,-0.000505505595356226,-0.03832326456904411,0.001560183591209352,0.0037172420416027308,-0.10205839574337006,0.0009360876283608377,0.7876267433166504,-0.009846506640315056,9.668828964233398
1765752894.470088,0.9992601871490479,-0.00050167873268947,-0.03842438757419586,0.0015613007126376033,0.0037071036640554667,-0.10120174288749695,0.0009245872497558594,0.7889946103096008,-0.009773917496204376,9.673494338989258
1765752894.4715867,0.9992601871490479,-0.00050167873268947,-0.03842438757419586,0.0015613007126376033,0.0037071036640554667,-0.10120174288749695,0.0009245872497558594,0.7889946103096008,-0.009773917496204376,9.673494338989258
1765752894.472303,0.9992563128471375,-0.0004978629876859486,-0.03852463886141777,0.0015624056104570627,0.0036969082430005074,-0.10033317655324936,0.0009131994447670877,0.7906439304351807,-0.009701766073703766,9.677651405334473
1765752894.4735825,0.9992524981498718,-0.0004940584767609835,-0.03862401843070984,0.0015634984010830522,0.0036866464652121067,-0.0994582399725914,0.0009019171702675521,0.8339632153511047,-0.009655254893004894,9.578561782836914
1765752894.4744852,0.9992524981498718,-0.0004940584767609835,-0.03862401843070984,0.0015634984010830522,0.0036866464652121067,-0.0994582399725914,0.0009019171702675521,0.8339632153511047,-0.009655254893004894,9.578561782836914
1765752894.4758735,0.9992486238479614,-0.0004902628716081381,-0.03872299566864967,0.001564578851684928,0.0036778529174625874,-0.09906027466058731,0.000890068244189024,0.8370000720024109,-0.009582030586898327,9.581232070922852
1765752894.4767604,0.9992486238479614,-0.0004902628716081381,-0.03872299566864967,0.001564578851684928,0.0036778529174625874,-0.09906027466058731,0.000890068244189024,0.8370000720024109,-0.009582030586898327,9.581232070922852
1765752894.478513,0.9992448091506958,-0.0004864762886427343,-0.03882157802581787,0.0015656468458473682,0.0036689729895442724,-0.09866130352020264,0.0008782458025962114,0.8323160409927368,-0.00949195958673954,9.594975471496582
1765752894.4788837,0.9992448091506958,-0.0004864762886427343,-0.03882157802581787,0.0015656468458473682,0.0036689729895442724,-0.09866130352020264,0.0008782458025962114,0.8323160409927368,-0.00949195958673954,9.594975471496582
1765752894.4803443,0.9992409944534302,-0.0004826997173950076,-0.038919638842344284,0.0015667026164010167,0.0036593168042600155,-0.09814351052045822,0.0008666232461109757,0.827774703502655,-0.009402689523994923,9.608362197875977
1765752894.4810498,0.9992409944534302,-0.0004826997173950076,-0.038919638842344284,0.0015667026164010167,0.0036593168042600155,-0.09814351052045822,0.0008666232461109757,0.827774703502655,-0.009402689523994923,9.608362197875977
1765752894.4825623,0.9992371797561646,-0.0004789341182913631,-0.03901707008481026,0.0015677462797611952,0.003648870624601841,-0.09750915318727493,0.0008552175713703036,0.8246853947639465,-0.009318843483924866,9.619730949401855
1765752894.4836023,0.9992371797561646,-0.0004789341182913631,-0.03901707008481026,0.0015677462797611952,0.003648870624601841,-0.09750915318727493,0.0008552175713703036,0.8246853947639465,-0.009318843483924866,9.619730949401855
1765752894.4836574,0.9992334246635437,-0.00047518021892756224,-0.03911377489566803,0.0015687779523432255,0.0036378782242536545,-0.09678386896848679,0.0008440070087090135,0.8229392766952515,-0.009240378625690937,9.629205703735352
1765752894.4850836,0.9992296695709229,-0.00047143836854957044,-0.03920968621969223,0.0015697977505624294,0.003626599907875061,-0.09599227458238602,0.0008329668780788779,0.8229392766952515,-0.009240378625690937,9.629205703735352
1765752894.4856818,0.9992296695709229,-0.00047143836854957044,-0.03920968621969223,0.0015697977505624294,0.003626599907875061,-0.09599227458238602,0.0008329668780788779,0.8222261667251587,-0.009165736846625805,9.63716983795166
1765752894.4869447,0.9992296695709229,-0.00047143836854957044,-0.03920968621969223,0.0015697977505624294,0.003626599907875061,-0.09599227458238602,0.0008329668780788779,0.8222261667251587,-0.009165736846625805,9.63716983795166
1765752894.4877636,0.999225914478302,-0.00046770882909186184,-0.03930475935339928,0.0015708057908341289,0.0036152105312794447,-0.09515383094549179,0.0008220766321755946,0.8222692608833313,-0.009093272499740124,9.643976211547852
1765752894.4892428,0.999225914478302,-0.00046770882909186184,-0.03930475935339928,0.0015708057908341289,0.0036152105312794447,-0.09515383094549179,0.0008220766321755946,0.8222692608833313,-0.009093272499740124,9.643976211547852
1765752894.4899814,0.9992222189903259,-0.00046399160055443645,-0.03939896449446678,0.0015718021895736456,0.003603789722546935,-0.09428316354751587,0.0008113199146464467,0.8228664994239807,-0.009021873585879803,9.649887084960938
1765752894.4914439,0.9992222189903259,-0.00046399160055443645,-0.03939896449446678,0.0015718021895736456,0.003603789722546935,-0.09428316354751587,0.0008113199146464467,0.8228664994239807,-0.009021873585879803,9.649887084960938
1765752894.4921453,0.9992185235023499,-0.00046028679935261607,-0.039492275565862656,0.0015727870631963015,0.003592352382838726,-0.09339120239019394,0.0008006838033907115,0.8238691687583923,-0.008950996212661266,9.655099868774414
1765752894.493385,0.9992148876190186,-0.0004565944545902312,-0.0395846851170063,0.0015737606445327401,0.0035808859393000603,-0.09248610585927963,0.0007901584613136947,0.8657578229904175,-0.008908375166356564,9.557050704956055
1765752894.4943595,0.9992148876190186,-0.0004565944545902312,-0.0395846851170063,0.0015737606445327401,0.0035808859393000603,-0.09248610585927963,0.0007901584613136947,0.8657578229904175,-0.008908375166356564,9.557050704956055
1765752894.4959128,0.9992112517356873,-0.0004529123834799975,-0.03967666253447533,0.0015747224679216743,0.0035708199720829725,-0.0920567661523819,0.0007790792733430862,0.8278273940086365,-0.008808387443423271,9.663211822509766
1765752894.4965963,0.9992112517356873,-0.0004529123834799975,-0.03967666253447533,0.0015747224679216743,0.0035708199720829725,-0.0920567661523819,0.0007790792733430862,0.8278273940086365,-0.008808387443423271,9.663211822509766
1765752894.4978411,0.999207615852356,-0.0004492429143283516,-0.03976772353053093,0.0015756729990243912,0.003559257835149765,-0.09113984555006027,0.0007686861790716648,0.8621665239334106,-0.008751481771469116,9.575818061828613
1765752894.498696,0.999207615852356,-0.0004492429143283516,-0.03976772353053093,0.0015756729990243912,0.003559257835149765,-0.09113984555006027,0.0007686861790716648,0.8621665239334106,-0.008751481771469116,9.575818061828613
1765752894.4999537,0.9992039799690247,-0.00044558473746292293,-0.03985823318362236,0.001576612121425569,0.003548400243744254,-0.09058742225170135,0.000757906527724117,0.8650872707366943,-0.00868064071983099,9.578454971313477
1765752894.5008826,0.9992039799690247,-0.00044558473746292293,-0.03985823318362236,0.001576612121425569,0.003548400243744254,-0.09058742225170135,0.000757906527724117,0.8650872707366943,-0.00868064071983099,9.578454971313477
1765752894.502148,0.9992004036903381,-0.00044193791109137237,-0.03994819149374962,0.001577539835125208,0.0035374644212424755,-0.09003706276416779,0.0007471659919247031,0.8616523146629333,-0.00859926175326109,9.590631484985352
1765752894.5030882,0.9991968274116516,-0.00043830307549797,-0.04003750905394554,0.0015784561401233077,0.0035260494332760572,-0.08939462900161743,0.0007366016507148743,0.8582544922828674,-0.008518669754266739,9.602561950683594
1765752894.5044048,0.9991968274116516,-0.00043830307549797,-0.04003750905394554,0.0015784561401233077,0.0035260494332760572,-0.08939462900161743,0.0007366016507148743,0.8582544922828674,-0.008518669754266739,9.602561950683594
1765752894.505627,0.9991968274116516,-0.00043830307549797,-0.04003750905394554,0.0015784561401233077,0.0035260494332760572,-0.08939462900161743,0.0007366016507148743,0.8582544922828674,-0.008518669754266739,9.602561950683594
1765752894.5056717,0.9991933107376099,-0.0004346808709669858,-0.04012609273195267,0.001579361385665834,0.0035141559783369303,-0.08866146951913834,0.000726225960534066,0.8559878468513489,-0.008441484533250332,9.612823486328125
1765752894.506524,0.9991933107376099,-0.0004346808709669858,-0.04012609273195267,0.001579361385665834,0.0035141559783369303,-0.08866146951913834,0.000726225960534066,0.8559878468513489,-0.008441484533250332,9.612823486328125
1765752894.507486,0.9991897344589233,-0.00043107173405587673,-0.040213875472545624,0.0015802555717527866,0.0035019381903111935,-0.0878579318523407,0.0007160201785154641,0.8547865152359009,-0.008367630653083324,9.621501922607422
1765752894.5090473,0.9991897344589233,-0.00043107173405587673,-0.040213875472545624,0.0015802555717527866,0.0035019381903111935,-0.0878579318523407,0.0007160201785154641,0.8547865152359009,-0.008367630653083324,9.621501922607422
1765752894.5096946,0.9991862773895264,-0.00042747589759528637,-0.040300801396369934,0.0015811386983841658,0.0034895562566816807,-0.08700387924909592,0.0007059635245241225,0.854402482509613,-0.008296170271933079,9.628911972045898
1765752894.5109959,0.9991862773895264,-0.00042747589759528637,-0.040300801396369934,0.0015811386983841658,0.0034895562566816807,-0.08700387924909592,0.0007059635245241225,0.854402482509613,-0.008296170271933079,9.628911972045898
1765752894.5118906,0.9991827607154846,-0.000423893507104367,-0.04038684070110321,0.0015820111148059368,0.003477114485576749,-0.08611501008272171,0.0006960389437153935,0.8546200394630432,-0.008226138539612293,9.635337829589844
1765752894.5133889,0.9991793036460876,-0.00042032459168694913,-0.04047197103500366,0.0015828728210180998,0.0034646568819880486,-0.08520324528217316,0.0006862330483272672,0.8949917554855347,-0.008187993429601192,9.538495063781738
1765752894.514074,0.9991793036460876,-0.00042032459168694913,-0.04047197103500366,0.0015828728210180998,0.0034646568819880486,-0.08520324528217316,0.0006862330483272672,0.8949917554855347,-0.008187993429601192,9.538495063781738
1765752894.515654,0.9991793036460876,-0.00042032459168694913,-0.04047197103500366,0.0015828728210180998,0.0034646568819880486,-0.08520324528217316,0.0006862330483272672,0.8949917554855347,-0.008187993429601192,9.538495063781738
1765752894.5162475,0.9991759061813354,-0.00041676705586723983,-0.0405566580593586,0.001583723584190011,0.0034535585436969995,-0.08476313948631287,0.0006758878007531166,0.857395350933075,-0.008086188696324825,9.645294189453125
1765752894.517529,0.9991759061813354,-0.00041676705586723983,-0.0405566580593586,0.001583723584190011,0.0034535585436969995,-0.08476313948631287,0.0006758878007531166,0.857395350933075,-0.008086188696324825,9.645294189453125
1765752894.5184345,0.9991725087165833,-0.00041322308243252337,-0.04064041003584862,0.001584563753567636,0.0034410792868584394,-0.08382754772901535,0.0006662242813035846,0.8507944345474243,-0.008004026487469673,9.661599159240723
1765752894.5197074,0.999169111251831,-0.000409693515393883,-0.040723104029893875,0.0015853935619816184,0.003427923424169421,-0.08277036994695663,0.0006568342796526849,0.8522560000419617,-0.007936130277812481,9.665617942810059
1765752894.5206237,0.999169111251831,-0.000409693515393883,-0.040723104029893875,0.0015853935619816184,0.003427923424169421,-0.08277036994695663,0.0006568342796526849,0.8522560000419617,-0.007936130277812481,9.665617942810059
1765752894.5219162,0.9991657733917236,-0.0004061784711666405,-0.040804747492074966,0.00158621312584728,0.003414706327021122,-0.08171515166759491,0.000647548702545464,0.8946675062179565,-0.00790461990982294,9.564922332763672
1765752894.522977,0.9991657733917236,-0.0004061784711666405,-0.040804747492074966,0.00158621312584728,0.003414706327021122,-0.08171515166759491,0.000647548702545464,0.8946675062179565,-0.00790461990982294,9.564922332763672
1765752894.5245063,0.999162495136261,-0.00040267553413286805,-0.04088584706187248,0.0015870220959186554,0.0034030284732580185,-0.08117443323135376,0.0006376781966537237,0.8986098170280457,-0.007840126752853394,9.565958976745605
1765752894.525053,0.999162495136261,-0.00040267553413286805,-0.04088584706187248,0.0015870220959186554,0.0034030284732580185,-0.08117443323135376,0.0006376781966537237,0.8986098170280457,-0.007840126752853394,9.565958976745605
1765752894.526955,0.9991591572761536,-0.00039918447146192193,-0.04096643626689911,0.0015878204721957445,0.0033915708772838116,-0.0806618258357048,0.0006278039654716849,0.8946740031242371,-0.007761381566524506,9.578779220581055
1765752894.5273454,0.9991591572761536,-0.00039918447146192193,-0.04096643626689911,0.0015878204721957445,0.0033915708772838116,-0.0806618258357048,0.0006278039654716849,0.8946740031242371,-0.007761381566524506,9.578779220581055
1765752894.5284705,0.9991558790206909,-0.0003957059234380722,-0.041046418249607086,0.001588608487509191,0.003379600588232279,-0.08005443960428238,0.0006181036587804556,0.8905820846557617,-0.007681817747652531,9.591614723205566
1765752894.5295377,0.999152660369873,-0.0003922406758647412,-0.041125696152448654,0.001589386141858995,0.003367002122104168,-0.07934926450252533,0.0006085948552936316,0.8877107501029968,-0.007605561055243015,9.602633476257324
1765752894.5311253,0.999152660369873,-0.0003922406758647412,-0.041125696152448654,0.001589386141858995,0.003367002122104168,-0.07934926450252533,0.0006085948552936316,0.8877107501029968,-0.007605561055243015,9.602633476257324
1765752894.5318298,0.9991493821144104,-0.0003887893399223685,-0.041204191744327545,0.0015901536680758,0.0033539580181241035,-0.07856766879558563,0.0005992577061988413,0.8860170841217041,-0.007533262018114328,9.611882209777832
1765752894.533011,0.9991493821144104,-0.0003887893399223685,-0.041204191744327545,0.0015901536680758,0.0033539580181241035,-0.07856766879558563,0.0005992577061988413,0.8860170841217041,-0.007533262018114328,9.611882209777832
1765752894.5339072,0.9991462230682373,-0.0003853521775454283,-0.04128184914588928,0.001590911066159606,0.003340702736750245,-0.07773113250732422,0.0005900701507925987,0.8852256536483765,-0.007463943213224411,9.619719505310059
1765752894.535607,0.9991462230682373,-0.0003853521775454283,-0.04128184914588928,0.001590911066159606,0.003340702736750245,-0.07773113250732422,0.0005900701507925987,0.8852256536483765,-0.007463943213224411,9.619719505310059
